GX, GY, GZ, AX, AY, AZ, MX, MY, MZ, TS, tags
53.80249,21.28601,-27.923584,0.670166,0.4584961,0.59521484,-0.5013428,-0.10345459,0.11590576,201 
50.811768,19.79065,-25.390625,0.66748047,0.42895508,0.55859375,-0.5013428,-0.10345459,0.11590576,202 
56.121826,15.945435,-22.750854,0.6772461,0.4194336,0.5324707,-0.501709,-0.105651855,0.11590576,203 
71.83838,11.856079,-18.157959,0.67626953,0.41479492,0.50268555,-0.501709,-0.105651855,0.11590576,204 
85.47974,8.026123,-11.077881,0.66625977,0.4140625,0.49145508,-0.501709,-0.105651855,0.11590576,205 
94.558716,7.7056885,-11.59668,0.64575195,0.3959961,0.49169922,-0.5046387,-0.09906006,0.1071167,206 
93.47534,6.2408447,-5.2490234,0.6245117,0.35766602,0.48950195,-0.5046387,-0.09906006,0.1071167,207 
90.83557,4.5776367,-1.5716553,0.61450195,0.31982422,0.48706055,-0.5046387,-0.09173584,0.105651855,208 
87.60071,3.1585693,2.2125244,0.6135254,0.2902832,0.48364258,-0.5046387,-0.09173584,0.105651855,209 
80.09338,3.3874512,5.996704,0.6130371,0.2697754,0.47631836,-0.5046387,-0.09173584,0.105651855,210 
72.41821,1.0986328,11.581421,0.6201172,0.24414062,0.46704102,-0.5057373,-0.089538574,0.097961426,211 
64.55994,0.9460449,20.187378,0.6328125,0.21484375,0.45776367,-0.5057373,-0.089538574,0.097961426,212 
48.64502,1.6937256,28.518677,0.6374512,0.1784668,0.4362793,-0.50390625,-0.08660889,0.09100342,213 
20.599365,5.584717,37.078857,0.63378906,0.111083984,0.3930664,-0.50390625,-0.08660889,0.09100342,214 
-15.518188,10.910034,45.76111,0.6237793,0.040771484,0.35009766,-0.50390625,-0.08660889,0.09100342,215 
-39.245605,13.763428,63.88855,0.6101074,-0.029052734,0.3059082,-0.5013428,-0.086242676,0.09539795,216 
-60.134888,17.37976,89.782715,0.5749512,-0.13012695,0.2626953,-0.5013428,-0.086242676,0.09539795,217 
-78.78113,21.621704,97.473145,0.5493164,-0.12890625,0.24121094,-0.50097656,-0.08734131,0.09466553,218 
-102.53906,21.820068,99.25842,0.56469727,-0.20385742,0.24584961,-0.50097656,-0.08734131,0.09466553,219 
-138.53455,17.76123,107.666016,0.59887695,-0.22802734,0.28100586,-0.50097656,-0.08734131,0.10235596,220 
-178.22266,11.688232,125.01526,0.5629883,-0.24658203,0.35131836,-0.4951172,-0.10015869,0.10235596,221 
-336.3037,-12.207031,107.559204,0.6569824,-0.32226562,0.5185547,-0.4951172,-0.10015869,0.10235596,222 
-462.63123,-26.901245,129.776,0.7026367,-0.1574707,0.73046875,-0.48706055,-0.11224365,0.120666504,223 
-494.1864,-38.04016,173.172,0.6862793,0.07348633,0.8574219,-0.48706055,-0.11224365,0.120666504,224 
-488.49487,-52.627563,202.19421,0.6826172,0.38110352,0.9284668,-0.48706055,-0.11224365,0.120666504,225 
-484.43604,-87.69226,218.4143,0.7504883,0.6870117,0.9309082,-0.48083496,-0.137146,0.15179443,226 
-491.8518,-106.3385,229.0802,0.78564453,0.828125,0.8901367,-0.48083496,-0.137146,0.15179443,227 
-498.87085,-88.638306,215.20996,0.7697754,0.9472656,0.82543945,-0.46618652,-0.15509033,0.19207764,228 
-474.823,-73.54736,209.94568,0.6916504,1.0302734,0.72387695,-0.46618652,-0.15509033,0.19207764,229 
-441.69617,-58.944702,204.8645,0.58935547,1.0712891,0.6245117,-0.46618652,-0.15509033,0.19207764,230 
-400.49744,-52.139282,197.86072,0.50341797,1.0703125,0.5078125,-0.4482422,-0.16827393,0.22174072,231 
-355.51453,-57.647705,186.5387,0.43725586,1.0217285,0.3864746,-0.4482422,-0.16827393,0.22174072,232 
-333.6029,-53.222656,179.19922,0.37597656,0.9550781,0.36889648,-0.43432617,-0.17669678,0.25323486,233 
-320.22095,-48.26355,165.37476,0.32641602,0.9008789,0.24023438,-0.43432617,-0.17669678,0.25323486,234 
-283.49304,-38.970947,149.15466,0.2692871,0.8781738,0.2019043,-0.43432617,-0.17669678,0.27337646,235 
-272.8424,-33.569336,131.94275,0.23583984,0.86035156,0.17211914,-0.41784668,-0.18109131,0.27337646,236 
-234.54285,-16.845703,98.17505,0.20629883,0.89453125,0.15698242,-0.41784668,-0.18109131,0.27337646,237 
-236.43494,-24.719238,76.6449,0.20654297,0.92089844,0.10449219,-0.41381836,-0.17779541,0.29571533,238 
-214.81323,-10.269165,61.09619,0.16699219,0.96606445,0.09106445,-0.41381836,-0.17779541,0.29571533,239 
-193.89343,-11.581421,51.42212,0.14208984,1.0070801,0.08300781,-0.41381836,-0.17779541,0.29571533,240 
-169.93713,-5.5236816,38.528442,0.12670898,1.0297852,0.08666992,-0.40722656,-0.17779541,0.31585693,241 
-146.27075,2.7923584,31.951904,0.10620117,1.0437012,0.10058594,-0.40722656,-0.17779541,0.31585693,242 
-132.69043,2.6855469,33.828735,0.10083008,1.0495605,0.10253906,-0.40393066,-0.17889404,0.32904053,243 
-108.65784,13.183594,32.180786,0.091552734,1.0751953,0.1003418,-0.40393066,-0.17889404,0.32904053,244 
-83.221436,21.1792,28.778076,0.10107422,1.1018066,0.088378906,-0.40393066,-0.17889404,0.32904053,245 
-54.32129,21.987915,22.506714,0.13647461,1.1135254,0.075683594,-0.4020996,-0.17999268,0.33416748,246 
-33.63037,22.750854,18.341064,0.1743164,1.1015625,0.067871094,-0.4020996,-0.17999268,0.33416748,247 
-24.093628,24.002075,16.63208,0.19970703,1.0778809,0.07128906,-0.39990234,-0.17962646,0.3378296,248 
-19.561768,24.642944,14.434814,0.21948242,1.0490723,0.07324219,-0.39990234,-0.17962646,0.3378296,249 
-20.736694,26.184082,13.336182,0.234375,1.0180664,0.07519531,-0.39990234,-0.17669678,0.338562,250 
-26.107788,26.748657,12.588501,0.24633789,0.9951172,0.07519531,-0.3988037,-0.17669678,0.338562,251 
-34.072876,27.20642,11.520386,0.25439453,0.9719238,0.072753906,-0.3988037,-0.17669678,0.338562,252 
-43.10608,27.038574,10.894775,0.2607422,0.951416,0.06518555,-0.39733887,-0.17669678,0.34295654,253 
-49.16382,27.008057,10.528564,0.26391602,0.9440918,0.052490234,-0.39733887,-0.17669678,0.34295654,254 
-52.886963,26.916504,10.1623535,0.26538086,0.95043945,0.037353516,-0.39733887,-0.17669678,0.34295654,255 
-53.100586,27.023315,10.253906,0.26953125,0.9626465,0.023925781,-0.3980713,-0.17999268,0.3447876,0 
-49.53003,26.931763,10.696411,0.27563477,0.97802734,0.015380859,-0.3980713,-0.17999268,0.3447876,1 
-44.0979,26.184082,12.023926,0.28393555,0.9902344,0.008544922,-0.3947754,-0.17779541,0.3554077,2 
-37.094116,25.45166,13.519287,0.28857422,0.99902344,0.0043945312,-0.3947754,-0.17779541,0.3554077,3 
-30.960083,24.520874,14.251709,0.29003906,1.0019531,-0.0014648438,-0.3947754,-0.17779541,0.3554077,4 
-24.20044,23.925781,14.73999,0.29125977,1.0021973,-0.0053710938,-0.3947754,-0.17999268,0.35321045,5 
-19.77539,23.330688,15.411377,0.2902832,0.9926758,-0.0053710938,-0.3947754,-0.17999268,0.35321045,6 
-17.791748,22.109985,15.640259,0.28588867,0.97924805,-0.00390625,-0.3918457,-0.17779541,0.35723877,7 
-14.953613,20.080566,14.11438,0.27441406,0.96191406,-0.008056641,-0.39294434,-0.17779541,0.35211182,9 
-14.205933,19.500732,12.786865,0.27075195,0.9580078,-0.010253906,-0.39294434,-0.17779541,0.35211182,10 
-13.656616,18.508911,12.298584,0.27001953,0.9550781,-0.01171875,-0.39294434,-0.17779541,0.35211182,11 
-13.473511,17.501831,15.609741,0.27172852,0.95458984,-0.012939453,-0.38964844,-0.17523193,0.35980225,12 
-12.817383,17.27295,10.910034,0.27392578,0.9562988,-0.013916016,-0.38964844,-0.17523193,0.35980225,13 
-10.696411,16.494751,10.559082,0.27783203,0.9609375,-0.013916016,-0.38964844,-0.17523193,0.35980225,14 
-10.269165,15.365601,10.406494,0.2824707,0.96777344,-0.013183594,-0.38635254,-0.17852783,0.35943604,15 
-8.560181,14.801025,9.811401,0.28710938,0.9724121,-0.010986328,-0.38635254,-0.17852783,0.35943604,16 
-7.1868896,15.487671,7.827759,0.29248047,0.9760742,-0.0078125,-0.38635254,-0.17706299,0.36236572,17 
-8.804321,24.002075,-9.460449,0.25195312,0.99072266,-0.0031738281,-0.38635254,-0.17706299,0.36236572,18 
-0.35095215,33.859253,-25.299072,0.33789062,1.0466309,0.0041503906,-0.38635254,-0.17706299,0.3587036,19 
29.11377,31.463623,-31.311035,0.35717773,1.1599121,0.025146484,-0.38708496,-0.17779541,0.3587036,20 
55.618286,27.313232,-40.023804,0.36279297,1.2949219,0.09790039,-0.38708496,-0.17779541,0.3587036,21 
108.21533,9.735107,-45.532227,0.3947754,1.3986816,0.15161133,-0.3914795,-0.17962646,0.35687256,22 
239.70032,7.4005127,-56.381226,0.42114258,1.487793,0.099853516,-0.3914795,-0.17962646,0.35687256,23 
390.60974,3.5858154,-42.251587,0.4182129,1.5849609,-0.014160156,-0.39367676,-0.17852783,0.33306885,24 
463.0432,12.207031,-18.844604,0.3852539,1.5993652,-0.1340332,-0.39367676,-0.17852783,0.33306885,25 
499.9237,15.670776,3.0059814,0.32763672,1.5061035,-0.22705078,-0.39367676,-0.17852783,0.33306885,26 
499.9237,17.791748,20.065308,0.1977539,1.2871094,-0.22094727,-0.3947754,-0.18292236,0.29608154,27 
499.9237,13.916016,18.295288,0.1184082,1.1889648,-0.14086914,-0.3947754,-0.18292236,0.29608154,28 
498.94714,3.616333,-4.7302246,0.12524414,1.0185547,-0.03466797,-0.3947754,-0.18292236,0.25506592,29 
491.36353,13.183594,-6.134033,0.16040039,0.90722656,0.13647461,-0.39294434,-0.18109131,0.25506592,30 
418.7622,11.306763,-4.058838,0.19458008,0.7648926,0.24243164,-0.39294434,-0.18109131,0.25506592,31 
377.50244,24.56665,-7.232666,0.16748047,0.70874023,0.31762695,-0.3951416,-0.17486572,0.2210083,32 
341.24756,39.627075,-12.908936,0.15600586,0.64819336,0.33740234,-0.3951416,-0.17486572,0.2210083,33 
294.31152,47.1344,-23.147583,0.15673828,0.5871582,0.3540039,-0.3951416,-0.16937256,0.19244385,34 
261.90186,56.152344,-34.179688,0.15039062,0.56396484,0.38134766,-0.39697266,-0.16937256,0.19244385,35 
238.00659,60.012817,-44.677734,0.17114258,0.5449219,0.41381836,-0.39697266,-0.16937256,0.19244385,36 
216.53748,59.906006,-48.461914,0.19995117,0.5317383,0.43823242,-0.40393066,-0.16021729,0.17633057,37 
191.52832,58.013916,-53.78723,0.2368164,0.5456543,0.4638672,-0.40393066,-0.16021729,0.17633057,38 
167.32788,55.648804,-54.18396,0.27514648,0.5942383,0.48632812,-0.40759277,-0.15618896,0.15911865,39 
149.58191,55.603027,-50.67444,0.3046875,0.6550293,0.49536133,-0.40759277,-0.15618896,0.15911865,40 
149.00208,56.137085,-45.37964,0.32592773,0.72998047,0.49169922,-0.40759277,-0.15618896,0.15911865,41 
161.95679,55.648804,-37.612915,0.34301758,0.7819824,0.4802246,-0.4152832,-0.15435791,0.15435791,42 
171.99707,54.718018,-31.75354,0.35058594,0.7883301,0.46850586,-0.4152832,-0.15435791,0.15435791,43 
183.21228,52.29187,-29.052734,0.35473633,0.76782227,0.4658203,-0.4152832,-0.14630127,0.13824463,44 
189.88037,54.489136,-26.794434,0.35620117,0.7155762,0.47216797,-0.41931152,-0.14630127,0.13824463,45 
189.48364,47.88208,-26.000977,0.3618164,0.6516113,0.48364258,-0.41931152,-0.14630127,0.13824463,46 
168.18237,43.930054,-23.68164,0.38354492,0.48291016,0.5161133,-0.42077637,-0.14300537,0.12689209,48 
157.08923,41.5802,-19.546509,0.39868164,0.41967773,0.52856445,-0.42077637,-0.13677979,0.11407471,49 
143.72253,40.283203,-15.991211,0.41674805,0.35791016,0.5444336,-0.4189453,-0.13677979,0.11407471,50 
124.72534,35.949707,-12.954712,0.43798828,0.30541992,0.5612793,-0.4189453,-0.13677979,0.11407471,51 
97.27478,32.318115,-12.802124,0.46020508,0.25463867,0.5773926,-0.4255371,-0.1272583,0.108947754,52 
70.28198,27.282715,-9.82666,0.4814453,0.21508789,0.57836914,-0.4255371,-0.1272583,0.108947754,53 
22.857666,25.57373,-7.2021484,0.48583984,0.15258789,0.56152344,-0.42443848,-0.12506104,0.09649658,54 
-23.4375,28.823853,-7.522583,0.47460938,0.10595703,0.52978516,-0.42443848,-0.12506104,0.09649658,55 
-57.388306,33.920288,0.12207031,0.46362305,0.07128906,0.46899414,-0.42443848,-0.12506104,0.09649658,56 
-86.59363,44.37256,12.22229,0.44750977,0.022949219,0.4104004,-0.42370605,-0.12249756,0.10675049,57 
-124.14551,53.95508,17.623901,0.41503906,-0.03100586,0.35473633,-0.42370605,-0.12249756,0.10675049,58 
-168.56384,60.37903,7.797241,0.3955078,-0.059326172,0.31640625,-0.42077637,-0.12506104,0.11260986,59 
-254.45557,55.755615,13.778687,0.42041016,-0.14331055,0.34057617,-0.42077637,-0.12506104,0.11260986,60 
-327.5299,50.76599,-13.702393,0.4099121,-0.11254883,0.4025879,-0.42077637,-0.12506104,0.11260986,61 
-375.86975,10.910034,-30.86853,0.49121094,0.072265625,0.5612793,-0.42407227,-0.13568115,0.13275146,62 
-396.82007,-22.323608,11.291504,0.48461914,0.4362793,0.7038574,-0.42407227,-0.13568115,0.13275146,63 
-415.5121,-28.900146,15.74707,0.52563477,0.7158203,0.8132324,-0.4215088,-0.14959717,0.1638794,64 
-422.45483,-73.69995,34.225464,0.6171875,1.0336914,0.9016113,-0.4215088,-0.14959717,0.1638794,65 
-393.41736,-100.0061,59.127808,0.6687012,1.3139648,0.91552734,-0.4215088,-0.14959717,0.1638794,66 
-343.81104,-105.85022,88.516235,0.65722656,1.4470215,0.85131836,-0.42041016,-0.16461182,0.19244385,67 
-301.94092,-103.393555,108.1543,0.60595703,1.4389648,0.7355957,-0.42041016,-0.16461182,0.19244385,68 
-264.328,-102.82898,116.9281,0.5437012,1.3469238,0.6008301,-0.40429688,-0.1708374,0.2144165,69 
-227.09656,-91.96472,112.60986,0.47460938,1.2150879,0.4711914,-0.40429688,-0.1708374,0.2144165,70 
-171.7987,-82.41272,97.10693,0.32006836,0.93969727,0.27978516,-0.4013672,-0.1741333,0.23272705,72 
-155.62439,-74.523926,82.87048,0.26342773,0.8688965,0.25073242,-0.4013672,-0.1741333,0.23272705,73 
-130.58472,-55.80139,48.64502,0.20483398,0.826416,0.2331543,-0.39367676,-0.17889404,0.24151611,75 
-122.37549,-48.00415,36.52954,0.19482422,0.8586426,0.25317383,-0.39367676,-0.17889404,0.24151611,76 
-111.86218,-39.718628,26.184082,0.19604492,0.92089844,0.28295898,-0.38598633,-0.17852783,0.25213623,77 
-97.06116,-32.0282,21.102905,0.20385742,0.9802246,0.31518555,-0.38598633,-0.17852783,0.25213623,78 
-81.78711,-27.008057,19.302368,0.21044922,1.0305176,0.33447266,-0.38415527,-0.17779541,0.2539673,79 
-60.11963,-20.217896,17.8833,0.21362305,1.0625,0.3479004,-0.38415527,-0.17779541,0.2539673,80 
-41.809082,-13.168335,15.075684,0.21166992,1.072998,0.35424805,-0.38415527,-0.17779541,0.2539673,81 
-23.19336,-8.010864,11.749268,0.20898438,1.0588379,0.35058594,-0.3881836,-0.17633057,0.2612915,82 
-11.520386,-3.326416,7.4768066,0.20458984,1.0251465,0.34033203,-0.3881836,-0.17633057,0.2612915,83 
-4.9591064,3.4179688,3.036499,0.19799805,0.98046875,0.3269043,-0.3848877,-0.17962646,0.26568604,84 
-3.753662,8.544922,-1.0070801,0.19360352,0.94677734,0.31396484,-0.3848877,-0.17962646,0.26568604,85 
-5.0811768,12.496948,-4.8065186,0.19311523,0.91015625,0.29956055,-0.3848877,-0.17962646,0.26568604,86 
-8.865356,16.433716,-9.872437,0.1953125,0.8898926,0.28833008,-0.38562012,-0.18511963,0.26605225,87 
-13.427734,18.585205,-12.054443,0.20288086,0.88061523,0.28442383,-0.38562012,-0.18511963,0.26605225,88 
-21.78955,19.363403,-12.374878,0.21313477,0.8708496,0.28466797,-0.38378906,-0.17706299,0.26531982,89 
-25.924683,21.209717,-11.001587,0.21948242,0.88305664,0.28149414,-0.38378906,-0.17706299,0.26531982,90 
-24.353027,21.835327,-9.933472,0.234375,0.90625,0.27368164,-0.38378906,-0.17706299,0.26531982,91 
-21.835327,20.446777,-7.3242188,0.24780273,0.92456055,0.26611328,-0.38671875,-0.18182373,0.27044678,92 
-20.15686,21.362305,-3.9367676,0.25463867,0.9255371,0.26171875,-0.38671875,-0.18182373,0.27044678,93 
-18.600464,18.493652,0.64086914,0.25878906,0.9182129,0.25463867,-0.38562012,-0.18218994,0.2748413,94 
-19.104004,16.433716,0.5950928,0.26538086,0.9055176,0.25390625,-0.38562012,-0.18218994,0.2748413,95 
-15.762329,14.526367,2.319336,0.26611328,0.9157715,0.24804688,-0.38562012,-0.18218994,0.2748413,96 
-9.216309,15.182495,3.6315918,0.26123047,0.93188477,0.24121094,-0.38745117,-0.18109131,0.270813,97 
-5.5236816,10.574341,5.9051514,0.27197266,0.9265137,0.24121094,-0.38232422,-0.1843872,0.27008057,99 
-5.783081,9.58252,4.1503906,0.27441406,0.9250488,0.24536133,-0.38232422,-0.1843872,0.27008057,100 
-6.8359375,7.9803467,10.437012,0.2758789,0.9223633,0.24951172,-0.38232422,-0.1843872,0.27008057,101 
-9.185791,6.576538,11.566162,0.27563477,0.9172363,0.25219727,-0.38452148,-0.18255615,0.27008057,102 
-15.487671,6.9732666,14.053345,0.27026367,0.9199219,0.25048828,-0.38452148,-0.18182373,0.2744751,105 
-7.8430176,6.958008,14.221191,0.27197266,0.9211426,0.24926758,-0.38452148,-0.18182373,0.2744751,106 
-11.795044,7.0343018,13.336182,0.2722168,0.92211914,0.24853516,-0.3881836,-0.18292236,0.27520752,107 
-11.825562,7.6904297,13.092041,0.27392578,0.9226074,0.24926758,-0.3881836,-0.18292236,0.27520752,108 
-11.520386,7.30896,12.283325,0.27490234,0.9243164,0.25,-0.38085938,-0.18255615,0.2748413,109 
-10.131836,8.407593,11.703491,0.27563477,0.9267578,0.24975586,-0.38085938,-0.18255615,0.2748413,110 
-7.3394775,8.972168,10.5896,0.27563477,0.9313965,0.24926758,-0.38085938,-0.18255615,0.2748413,111 
-4.79126,8.514404,9.292603,0.2770996,0.9316406,0.24951172,-0.3848877,-0.18182373,0.27374268,112 
-3.7231445,9.094238,8.575439,0.2775879,0.93115234,0.24780273,-0.3848877,-0.18182373,0.27374268,113 
-2.5787354,10.391235,7.30896,0.2758789,0.9289551,0.24780273,-0.381958,-0.17962646,0.27520752,114 
-5.1116943,15.258789,5.783081,0.26757812,0.91918945,0.24658203,-0.381958,-0.17962646,0.27520752,115 
-3.6773682,15.258789,3.463745,0.27001953,0.94433594,0.23413086,-0.381958,-0.17962646,0.27520752,116 
8.148193,16.860962,5.218506,0.2705078,0.9736328,0.2265625,-0.38012695,-0.18255615,0.27850342,117 
8.529663,27.20642,-5.3710938,0.2758789,0.9770508,0.22558594,-0.38012695,-0.18255615,0.27850342,118 
3.982544,31.524658,-21.118164,0.29223633,1.0039062,0.23120117,-0.37426758,-0.18182373,0.2781372,119 
14.419556,43.70117,-26.473999,0.2836914,1.0803223,0.25634766,-0.37426758,-0.18182373,0.2781372,120 
34.27124,41.305542,-29.769897,0.27856445,1.1413574,0.28125,-0.37426758,-0.18182373,0.2781372,121 
100.09766,46.035767,-45.806885,0.26831055,1.2241211,0.3149414,-0.38305664,-0.18145752,0.2744751,123 
147.53723,47.89734,-52.368164,0.26489258,1.2653809,0.30541992,-0.38671875,-0.18255615,0.26605225,124 
207.62634,51.77307,-45.08972,0.22851562,1.2775879,0.25219727,-0.38671875,-0.18255615,0.26605225,125 
270.27893,57.96814,-37.475586,0.1887207,1.2641602,0.1850586,-0.38671875,-0.18255615,0.26605225,126 
288.52844,58.95996,-29.60205,0.16503906,1.2346191,0.1652832,-0.3918457,-0.18292236,0.2444458,127 
308.63953,49.057007,-24.56665,0.16992188,1.1772461,0.16601562,-0.3918457,-0.18292236,0.2444458,128 
322.17407,35.27832,-17.028809,0.19262695,1.0715332,0.18945312,-0.3914795,-0.17852783,0.22247314,129 
315.29236,26.016235,-8.453369,0.2355957,0.9711914,0.25048828,-0.3914795,-0.17852783,0.22247314,130 
284.22546,8.743286,18.234253,0.2770996,0.7595215,0.3623047,-0.39440918,-0.17376709,0.20196533,132 
258.56018,4.3792725,22.521973,0.27319336,0.6479492,0.38891602,-0.39440918,-0.17376709,0.20196533,133 
222.15271,11.383057,24.658203,0.2746582,0.5979004,0.40942383,-0.3918457,-0.16534424,0.17926025,134 
185.34851,19.943237,21.04187,0.28295898,0.54663086,0.41845703,-0.3918457,-0.16534424,0.17926025,135 
136.45935,22.30835,11.978149,0.29003906,0.48657227,0.42163086,-0.3918457,-0.16534424,0.17926025,136 
90.63721,25.680542,4.547119,0.29492188,0.44311523,0.42944336,-0.39111328,-0.16021729,0.1642456,137 
68.496704,27.435303,0.90026855,0.30688477,0.43310547,0.43652344,-0.39111328,-0.16021729,0.1642456,138 
64.956665,30.410767,2.3498535,0.3215332,0.41674805,0.44262695,-0.3914795,-0.15875244,0.1642456,139 
58.97522,31.5094,5.493164,0.33081055,0.39990234,0.44995117,-0.3914795,-0.15875244,0.1642456,140 
50.704956,34.2865,13.244629,0.33081055,0.34814453,0.45336914,-0.3914795,-0.15875244,0.1642456,141 
17.303467,37.53662,15.914917,0.32348633,0.25805664,0.4440918,-0.39404297,-0.15655518,0.15911865,142 
-27.328491,38.497925,17.669678,0.3232422,0.19970703,0.4350586,-0.39404297,-0.15655518,0.15911865,143 
-73.10486,35.751343,15.731812,0.33154297,0.19628906,0.44067383,-0.39294434,-0.15325928,0.1605835,144 
-110.88562,28.076172,13.427734,0.3466797,0.22045898,0.4765625,-0.39294434,-0.15325928,0.1605835,145 
-149.30725,22.323608,10.025024,0.35009766,0.26049805,0.5246582,-0.39294434,-0.15325928,0.1605835,146 
-185.1654,3.40271,9.063721,0.3713379,0.38061523,0.57666016,-0.39111328,-0.1572876,0.17010498,147 
-216.12549,-18.630981,7.7667236,0.4169922,0.5354004,0.6171875,-0.39111328,-0.1572876,0.17010498,148 
-253.58582,-48.38562,10.864258,0.45629883,0.68652344,0.638916,-0.38635254,-0.16351318,0.18951416,149 
-284.04236,-70.632935,18.966675,0.46801758,0.8383789,0.6411133,-0.38635254,-0.16351318,0.18951416,150 
-294.4641,-76.812744,26.33667,0.44995117,0.9699707,0.6208496,-0.38635254,-0.16351318,0.18951416,151 
-291.12244,-78.91846,34.27124,0.41577148,1.0554199,0.5715332,-0.3848877,-0.1708374,0.21148682,152 
-279.3274,-76.309204,40.130615,0.37573242,1.109375,0.49804688,-0.3848877,-0.1708374,0.21148682,153 
-258.1787,-70.96863,40.55786,0.33496094,1.1296387,0.49267578,-0.38232422,-0.17852783,0.22723389,154 
-228.8971,-60.34851,39.474487,0.2956543,1.1347656,0.36791992,-0.38232422,-0.17852783,0.22723389,155 
-191.98608,-48.40088,35.04944,0.26538086,1.1259766,0.3190918,-0.38232422,-0.17852783,0.22723389,156 
-161.89575,-41.870117,33.737183,0.24121094,1.1132812,0.28100586,-0.3786621,-0.17926025,0.24334717,157 
-129.83704,-32.53174,30.166626,0.21679688,1.0947266,0.25561523,-0.3786621,-0.17926025,0.24334717,158 
-100.41809,-23.376465,23.773193,0.19799805,1.0695801,0.24609375,-0.37060547,-0.17706299,0.25543213,159 
-79.437256,-17.181396,18.157959,0.24902344,1.0480957,0.24658203,-0.37060547,-0.17706299,0.25543213,160 
-60.47058,-10.894775,12.680054,0.17895508,1.0324707,0.2524414,-0.37060547,-0.17706299,0.25543213,161 
-45.547485,-5.7678223,6.958008,0.17700195,1.0209961,0.26000977,-0.37097168,-0.18035889,0.26275635,162 
-32.76062,-2.4871826,3.6621094,0.17773438,1.0146484,0.26416016,-0.37097168,-0.18035889,0.26275635,163 
-23.040771,0.5493164,1.4648438,0.17895508,1.0075684,0.26513672,-0.37097168,-0.18035889,0.26934814,164 
-14.526367,2.89917,-1.4801025,0.1809082,1.0612793,0.2631836,-0.37097168,-0.18035889,0.26934814,165 
-9.262085,4.0893555,-4.119873,0.18481445,0.98706055,0.26098633,-0.37097168,-0.18035889,0.26934814,166 
-5.4473877,4.760742,-6.515503,0.19067383,0.9746094,0.25756836,-0.3717041,-0.18255615,0.26971436,167 
-2.029419,5.065918,-9.017944,0.19799805,0.9621582,0.25439453,-0.3717041,-0.18255615,0.26971436,168 
-0.9460449,5.432129,-9.307861,0.20605469,0.94873047,0.25317383,-0.37280273,-0.17852783,0.2711792,169 
-1.2512207,5.1574707,-10.192871,0.21362305,0.93725586,0.25390625,-0.37280273,-0.17852783,0.2711792,170 
-2.319336,5.432129,-9.155273,0.22192383,0.9279785,0.25439453,-0.37280273,-0.17852783,0.2711792,171 
-3.3569336,5.203247,-8.422852,0.23022461,0.92333984,0.25512695,-0.37573242,-0.17926025,0.270813,172 
-7.736206,5.5999756,-7.7819824,0.23852539,0.9121094,0.26049805,-0.37573242,-0.17926025,0.270813,173 
-16.89148,6.500244,-4.928589,0.2355957,0.89282227,0.2631836,-0.37390137,-0.18255615,0.27557373,174 
-26.351929,12.771606,-4.6539307,0.2290039,0.8881836,0.265625,-0.37390137,-0.18255615,0.27557373,175 
-31.61621,1.953125,-3.692627,0.24365234,0.90185547,0.25878906,-0.37390137,-0.18255615,0.27557373,176 
-28.244019,4.989624,1.5563965,0.23486328,0.9370117,0.24267578,-0.3753662,-0.18109131,0.27520752,177 
-22.155762,5.493164,2.7770996,0.23901367,0.9577637,0.23144531,-0.3753662,-0.18109131,0.27520752,178 
-20.706177,1.3580322,5.569458,0.24902344,0.9580078,0.22802734,-0.37390137,-0.18218994,0.27960205,179 
-19.714355,-0.22888184,9.338379,0.24536133,0.95703125,0.23071289,-0.37390137,-0.18218994,0.27960205,180 
-18.371582,0.32043457,10.955811,0.23535156,0.9580078,0.23046875,-0.37390137,-0.18218994,0.27960205,181 
-15.686035,1.5258789,10.559082,0.22558594,0.9550781,0.22753906,-0.37280273,-0.18035889,0.27667236,182 
-14.541626,2.9296875,8.178711,0.21557617,0.94921875,0.22387695,-0.37280273,-0.18035889,0.27667236,183 
-9.063721,7.8430176,1.9073486,0.2006836,0.94555664,0.21972656,-0.37390137,-0.17889404,0.28179932,186 
-11.489868,9.231567,1.5411377,0.20214844,0.94677734,0.2199707,-0.37243652,-0.17889404,0.28179932,187 
-5.41687,10.696411,0.8087158,0.20483398,0.94873047,0.22070312,-0.37243652,-0.17889404,0.28179932,188 
-3.1280518,10.681152,0.076293945,0.2084961,0.9499512,0.22314453,-0.37243652,-0.18182373,0.28582764,189 
-0.2593994,11.077881,0.091552734,0.2121582,0.9501953,0.22607422,-0.37243652,-0.18182373,0.28582764,190 
1.876831,7.9040527,-0.77819824,0.21459961,0.94677734,0.23022461,-0.37243652,-0.18182373,0.28582764,191 
3.3111572,11.825562,-1.0986328,0.21923828,0.9406738,0.23535156,-0.37280273,-0.17852783,0.2814331,192 
3.5095215,12.908936,-6.0577393,0.23291016,0.9199219,0.25512695,-0.3720703,-0.18182373,0.28948975,195 
2.9449463,11.550903,-7.9040527,0.24047852,0.9165039,0.26000977,-0.3720703,-0.18182373,0.28948975,196 
2.2735596,10.5896,-10.025024,0.24829102,0.91308594,0.265625,-0.36547852,-0.18182373,0.28033447,197 
1.8310547,9.246826,-10.787964,0.25610352,0.9121094,0.26879883,-0.36547852,-0.18182373,0.28033447,198 
1.5106201,8.331299,-11.016846,0.2626953,0.9135742,0.2705078,-0.37097168,-0.18328857,0.28289795,199 
0.8392334,6.6833496,-10.620117,0.2697754,0.9172363,0.2722168,-0.37097168,-0.18328857,0.28289795,200 
-0.64086914,4.79126,-9.033203,0.27539062,0.92041016,0.27270508,-0.37097168,-0.18328857,0.28289795,201 
-8.972168,0.4119873,-2.2125244,0.27954102,0.9265137,0.25976562,-0.37353516,-0.18035889,0.2774048,204 
-8.682251,-0.5340576,-1.4190674,0.2763672,0.9296875,0.25268555,-0.37353516,-0.18035889,0.2774048,205 
-7.217407,-0.7019043,-0.045776367,0.27172852,0.9328613,0.2434082,-0.37353516,-0.18035889,0.2774048,206 
-4.135132,-1.3122559,0.9613037,0.26635742,0.9350586,0.23632812,-0.3713379,-0.17889404,0.28253174,207 
-1.8005371,-1.4038086,1.1901855,0.26049805,0.93603516,0.23095703,-0.3713379,-0.17889404,0.28253174,208 
-0.1373291,0.91552734,0.16784668,0.25512695,0.93774414,0.22705078,-0.36950684,-0.18109131,0.284729,209 
-0.77819824,2.4871826,-5.1879883,0.2565918,0.94091797,0.22387695,-0.36950684,-0.18109131,0.284729,210 
2.166748,5.1574707,-8.529663,0.25610352,0.9526367,0.22290039,-0.36950684,-0.18109131,0.284729,211 
4.425049,21.499634,-21.499634,0.24951172,0.9736328,0.22705078,-0.375,-0.18182373,0.28216553,212 
11.703491,29.541016,-38.909912,0.26098633,1.0061035,0.23071289,-0.375,-0.18182373,0.28216553,213 
16.12854,37.857056,-52.6886,0.2626953,1.0568848,0.23852539,-0.37683105,-0.18292236,0.27850342,214 
33.294678,29.388428,-45.47119,0.26293945,1.1362305,0.26904297,-0.37683105,-0.18292236,0.27850342,215 
60.48584,31.982422,-47.027588,0.26464844,1.2111816,0.2841797,-0.37683105,-0.18292236,0.27850342,216 
97.03064,29.006958,-52.78015,0.27001953,1.244873,0.28979492,-0.38012695,-0.18365479,0.27886963,217 
143.1427,28.59497,-50.41504,0.26904297,1.3068848,0.29663086,-0.38012695,-0.18365479,0.27886963,218 
225.55542,25.32959,-41.549683,0.26367188,1.3925781,0.2590332,-0.38452148,-0.18548584,0.2715454,219 
285.33936,14.923096,-25.634766,0.25610352,1.4492188,0.18774414,-0.38452148,-0.18548584,0.2715454,220 
343.71948,14.434814,-8.300781,0.22070312,1.4208984,0.10913086,-0.38452148,-0.18548584,0.2715454,221 
373.90137,10.131836,-7.7056885,0.19042969,1.2651367,0.12475586,-0.3881836,-0.17999268,0.24261475,222 
383.05664,-0.869751,-2.4108887,0.1586914,1.0974121,0.09326172,-0.3881836,-0.17999268,0.24261475,223 
392.7307,0.74768066,15.670776,0.2097168,0.9909668,0.26611328,-0.3918457,-0.17340088,0.2144165,225 
364.71558,4.2266846,19.989014,0.20874023,0.7866211,0.3371582,-0.3918457,-0.17340088,0.2144165,226 
283.11157,16.067505,9.017944,0.18823242,0.5842285,0.38549805,-0.3881836,-0.1675415,0.18109131,227 
184.35669,22.079468,3.1738281,0.19311523,0.5124512,0.4272461,-0.3881836,-0.1675415,0.18109131,228 
185.89783,31.204224,8.865356,0.18969727,0.5986328,0.4650879,-0.39074707,-0.16461182,0.16900635,229 
225.7843,36.27014,11.505127,0.21728516,0.6574707,0.48706055,-0.39074707,-0.16461182,0.16900635,230 
223.90747,40.283203,9.002686,0.22753906,0.62280273,0.50805664,-0.39074707,-0.15472412,0.14447021,231 
210.31189,43.60962,6.591797,0.23803711,0.56640625,0.5266113,-0.39367676,-0.15472412,0.14447021,232 
192.44385,46.50879,2.9144287,0.2548828,0.53515625,0.54589844,-0.39367676,-0.15472412,0.14447021,233 
172.74475,47.836304,3.768921,0.26782227,0.5090332,0.5695801,-0.3922119,-0.14593506,0.13568115,234 
158.14209,47.424316,-1.5258789,0.28271484,0.5029297,0.5942383,-0.3922119,-0.14593506,0.13568115,235 
146.04187,47.180176,-3.0975342,0.29711914,0.5073242,0.6152344,-0.3922119,-0.14593506,0.13568115,236 
133.39233,47.714233,-3.2806396,0.30493164,0.5097656,0.6237793,-0.3947754,-0.13970947,0.120666504,237 
123.47412,48.538208,-3.9672852,0.30517578,0.5151367,0.62890625,-0.3947754,-0.13970947,0.120666504,238 
115.46326,48.27881,-4.8980713,0.30932617,0.53149414,0.63012695,-0.39587402,-0.13531494,0.12030029,239 
115.41748,45.654297,-5.050659,0.3112793,0.5527344,0.6340332,-0.39587402,-0.13531494,0.12030029,240 
117.41638,45.22705,-4.180908,0.3100586,0.57543945,0.6381836,-0.39587402,-0.13531494,0.12030029,241 
118.10303,44.403076,-5.3253174,0.3100586,0.5925293,0.64575195,-0.39916992,-0.13128662,0.11260986,242 
117.79785,42.83142,-7.0343018,0.31420898,0.60058594,0.66064453,-0.39916992,-0.13128662,0.11260986,243 
111.86218,41.70227,-9.765625,0.31762695,0.5998535,0.67285156,-0.39770508,-0.12542725,0.105285645,244 
104.537964,42.08374,-10.7421875,0.32104492,0.5983887,0.68359375,-0.39770508,-0.12542725,0.105285645,245 
102.27966,42.495728,-9.841919,0.32861328,0.625,0.7023926,-0.39770508,-0.11810303,0.097229004,246 
108.932495,36.697388,-7.019043,0.33984375,0.6689453,0.71899414,-0.39770508,-0.11810303,0.097229004,247 
114.212036,34.805298,-5.432129,0.34423828,0.70043945,0.7312012,-0.39770508,-0.11810303,0.097229004,248 
118.08777,32.485962,-1.1901855,0.34350586,0.69677734,0.73583984,-0.40319824,-0.11260986,0.09503174,249 
117.58423,31.63147,0.77819824,0.3395996,0.66625977,0.73291016,-0.40319824,-0.11260986,0.09503174,250 
113.02185,32.165527,2.39563,0.3334961,0.6040039,0.7241211,-0.40319824,-0.11260986,0.08734131,251 
103.94287,33.050537,2.6397705,0.328125,0.5246582,0.71118164,-0.4017334,-0.10455322,0.08734131,252 
95.50476,32.852173,-0.36621094,0.32739258,0.46679688,0.7019043,-0.4017334,-0.10455322,0.08734131,253 
88.28735,34.16443,-5.0964355,0.32958984,0.43432617,0.6989746,-0.40429688,-0.101623535,0.07745361,254 
83.37402,35.03418,-4.0283203,0.33251953,0.42626953,0.70288086,-0.40429688,-0.101623535,0.07745361,255 
83.69446,35.91919,-9.002686,0.33984375,0.43530273,0.7104492,-0.40429688,-0.101623535,0.07342529,0 
84.57947,37.261963,-10.528564,0.34545898,0.4477539,0.7224121,-0.40393066,-0.09832764,0.07342529,1 
85.128784,40.603638,-13.85498,0.3503418,0.4465332,0.7375488,-0.40393066,-0.09832764,0.07342529,2 
72.09778,41.870117,-17.532349,0.35546875,0.42993164,0.7519531,-0.40612793,-0.09063721,0.06793213,3 
63.12561,42.114258,-20.78247,0.3635254,0.41723633,0.7614746,-0.40612793,-0.09063721,0.06793213,4 
55.618286,41.534424,-25.253296,0.3720703,0.40625,0.7609863,-0.40979004,-0.08770752,0.06060791,5 
45.88318,39.489746,-30.456543,0.3815918,0.40234375,0.76342773,-0.40979004,-0.08770752,0.06060791,6 
39.07776,39.29138,-30.838013,0.38964844,0.38964844,0.7705078,-0.40979004,-0.08770752,0.06060791,7 
30.090332,36.880493,-31.021118,0.39770508,0.38208008,0.7714844,-0.40979004,-0.081848145,0.06463623,8 
24.093628,36.117554,-33.325195,0.40454102,0.39526367,0.77612305,-0.40979004,-0.081848145,0.06463623,9 
21.270752,35.90393,-36.514282,0.40576172,0.4020996,0.77978516,-0.40979004,-0.08001709,0.058044434,10 
14.862061,38.772583,-38.81836,0.40112305,0.3996582,0.78125,-0.41088867,-0.08001709,0.058044434,11 
0.091552734,39.8407,-41.59546,0.39526367,0.39013672,0.78100586,-0.41088867,-0.08001709,0.058044434,12 
-9.643555,42.22107,-42.373657,0.390625,0.38623047,0.7854004,-0.4152832,-0.081848145,0.062438965,13 
-10.803223,42.160034,-42.282104,0.38989258,0.3930664,0.7788086,-0.4152832,-0.081848145,0.062438965,14 
-10.879517,43.21289,-43.8385,0.38891602,0.39648438,0.76904297,-0.4152832,-0.08331299,0.059143066,15 
-10.147095,43.685913,-46.3562,0.3930664,0.4025879,0.7602539,-0.41601562,-0.08331299,0.059143066,16 
-8.407593,43.151855,-48.01941,0.40551758,0.4020996,0.75634766,-0.41601562,-0.08331299,0.059143066,17 
-8.575439,42.907715,-48.37036,0.4194336,0.39990234,0.7548828,-0.42700195,-0.08001709,0.066101074,18 
-12.832642,43.655396,-48.980713,0.43432617,0.39794922,0.75634766,-0.42700195,-0.08001709,0.066101074,19 
-17.578125,45.135498,-50.38452,0.44311523,0.4008789,0.76000977,-0.43029785,-0.08294678,0.059143066,20 
-19.470215,45.913696,-51.28479,0.4482422,0.40063477,0.7558594,-0.43029785,-0.08294678,0.059143066,21 
-25.039673,43.96057,-52.79541,0.45874023,0.41381836,0.763916,-0.43029785,-0.08294678,0.059143066,22 
-19.744873,42.251587,-50.750732,0.4675293,0.4350586,0.78100586,-0.43469238,-0.08477783,0.06317139,23 
-24.871826,42.877197,-53.588867,0.47021484,0.42700195,0.7897949,-0.43469238,-0.08477783,0.06317139,24 
-36.849976,45.60852,-56.030273,0.47094727,0.39697266,0.7907715,-0.43469238,-0.08441162,0.06866455,25 
-54.397583,48.553467,-58.532715,0.47460938,0.3671875,0.78027344,-0.43981934,-0.08441162,0.06866455,26 
-63.980103,49.102783,-57.95288,0.49389648,0.34692383,0.7644043,-0.43981934,-0.08441162,0.06866455,27 
-73.82202,47.851562,-57.769775,0.5083008,0.33935547,0.76049805,-0.44458008,-0.086242676,0.07122803,28 
-77.71301,45.211792,-58.288574,0.51000977,0.3630371,0.7609863,-0.44458008,-0.086242676,0.07122803,29 
-67.50488,42.053223,-51.132202,0.5214844,0.4194336,0.76123047,-0.45080566,-0.08660889,0.06903076,30 
-60.60791,40.267944,-51.605225,0.52319336,0.45410156,0.751709,-0.45080566,-0.08660889,0.06903076,31 
-58.288574,37.490845,-49.987793,0.5246582,0.4909668,0.7336426,-0.45080566,-0.08660889,0.06903076,32 
-45.059204,38.94043,-47.286987,0.5270996,0.51000977,0.7182617,-0.45263672,-0.093933105,0.07635498,33 
-43.502808,33.721924,-47.302246,0.51953125,0.51000977,0.71069336,-0.45263672,-0.093933105,0.07635498,34 
-41.488647,32.608032,-48.065186,0.513916,0.5151367,0.6948242,-0.4552002,-0.097595215,0.07672119,35 
-37.18567,33.065796,-49.346924,0.51464844,0.5102539,0.67993164,-0.4552002,-0.097595215,0.07672119,36 
-36.224365,34.347534,-49.865723,0.5144043,0.4963379,0.6645508,-0.4552002,-0.097595215,0.07672119,37 
-31.524658,36.071777,-50.38452,0.5144043,0.49121094,0.6533203,-0.4621582,-0.09466553,0.08441162,38 
-24.597168,37.246704,-51.940918,0.50927734,0.48095703,0.6550293,-0.4621582,-0.09466553,0.08441162,39 
-23.6969,38.223267,-53.29895,0.50634766,0.4716797,0.65893555,-0.46618652,-0.093933105,0.07965088,40 
-18.52417,35.324097,-52.90222,0.5197754,0.48266602,0.67041016,-0.46618652,-0.093933105,0.07965088,41 
-17.105103,35.232544,-53.9093,0.52441406,0.48217773,0.68188477,-0.46618652,-0.093933105,0.07965088,42 
-12.832642,34.317017,-55.31311,0.53125,0.50341797,0.68188477,-0.47094727,-0.09649658,0.08111572,43 
-3.2806396,33.065796,-54.397583,0.54248047,0.5012207,0.6748047,-0.47094727,-0.09649658,0.08111572,44 
-2.7008057,32.608032,-54.32129,0.54541016,0.4814453,0.66552734,-0.47094727,-0.093933105,0.08660889,45 
-0.79345703,31.570435,-52.993774,0.55322266,0.47045898,0.6594238,-0.47094727,-0.093933105,0.08660889,46 
0.16784668,29.190063,-52.017212,0.5637207,0.4584961,0.6586914,-0.47094727,-0.093933105,0.08660889,47 
-1.9836426,29.312134,-50.55237,0.56811523,0.43481445,0.65722656,-0.47790527,-0.09283447,0.0869751,48 
-3.8909912,31.036377,-51.330566,0.56933594,0.42456055,0.6542969,-0.47790527,-0.09283447,0.0869751,49 
-1.8615723,24.917603,-49.316406,0.579834,0.41796875,0.65112305,-0.48083496,-0.09246826,0.08331299,50 
-3.616333,22.445679,-49.087524,0.58569336,0.40234375,0.64624023,-0.48083496,-0.09246826,0.08331299,51 
-3.1585693,20.401001,-48.99597,0.5895996,0.40429688,0.642334,-0.48083496,-0.09246826,0.08331299,52 
-5.0811768,18.1427,-46.569824,0.5930176,0.39282227,0.6425781,-0.48339844,-0.09246826,0.08734131,53 
-1.2512207,16.37268,-45.822144,0.60595703,0.41381836,0.6467285,-0.48339844,-0.09246826,0.08734131,54 
0.076293945,14.724731,-43.59436,0.6125488,0.42211914,0.65478516,-0.48449707,-0.09173584,0.08917236,55 
-1.7242432,13.442993,-41.56494,0.61816406,0.41259766,0.6635742,-0.48449707,-0.09173584,0.08917236,56 
-15.350342,13.99231,-42.23633,0.60961914,0.38916016,0.67333984,-0.48449707,-0.09173584,0.08917236,57 
-23.31543,13.244629,-42.70935,0.6047363,0.38745117,0.6784668,-0.4888916,-0.089538574,0.09136963,58 
-29.678345,12.9852295,-43.07556,0.60375977,0.39038086,0.6755371,-0.4888916,-0.089538574,0.09136963,59 
-32.226562,12.161255,-41.59546,0.60913086,0.4020996,0.6772461,-0.4892578,-0.089538574,0.09100342,60 
-37.67395,11.764526,-40.67993,0.609375,0.39941406,0.68066406,-0.4892578,-0.089538574,0.09100342,61 
-40.893555,12.374878,-38.909912,0.61376953,0.41748047,0.6813965,-0.4892578,-0.089538574,0.09100342,62 
-40.237427,11.703491,-38.619995,0.6118164,0.4272461,0.67871094,-0.4951172,-0.09173584,0.093566895,63 
-40.786743,12.542725,-38.45215,0.6105957,0.4284668,0.6672363,-0.4951172,-0.09173584,0.093566895,64 
-42.160034,12.176514,-38.16223,0.6032715,0.42211914,0.65234375,-0.49328613,-0.090270996,0.09576416,65 
-41.96167,12.329102,-39.031982,0.5998535,0.4194336,0.64575195,-0.49328613,-0.090270996,0.09576416,66 
-42.495728,13.870239,-38.375854,0.59643555,0.42333984,0.6437988,-0.49328613,-0.090270996,0.09576416,67 
-39.520264,13.916016,-38.009644,0.59814453,0.44213867,0.638916,-0.4984131,-0.097961426,0.1005249,68 
-34.79004,14.663696,-37.902832,0.60302734,0.46118164,0.6281738,-0.4984131,-0.097961426,0.1005249,69 
-29.052734,14.587402,-36.92627,0.60717773,0.47094727,0.6191406,-0.49987793,-0.097595215,0.10015869,70 
-21.560669,14.175415,-35.476685,0.6069336,0.47265625,0.6118164,-0.49987793,-0.097595215,0.10015869,71 
-18.875122,14.221191,-35.980225,0.60180664,0.46606445,0.6113281,-0.49987793,-0.097595215,0.10015869,72 
-21.972656,15.2282715,-38.009644,0.5925293,0.44677734,0.6179199,-0.5053711,-0.09466553,0.10784912,73 
-24.902344,16.403198,-35.476685,0.58984375,0.44506836,0.6274414,-0.5053711,-0.09466553,0.10784912,74 
-27.923584,17.791748,-40.67993,0.5932617,0.4416504,0.63427734,-0.50390625,-0.093566895,0.10821533,75 
-28.61023,19.226074,-41.290283,0.59716797,0.44506836,0.62890625,-0.50390625,-0.093566895,0.10821533,76 
-28.717041,20.431519,-41.900635,0.60375977,0.45214844,0.6298828,-0.50390625,-0.093566895,0.10821533,77 
-21.66748,20.950317,-41.519165,0.611084,0.47094727,0.63671875,-0.5093994,-0.09686279,0.113708496,78 
-21.194458,20.41626,-43.258667,0.61621094,0.47485352,0.6503906,-0.5093994,-0.09686279,0.113708496,79 
-20.309448,19.622803,-42.938232,0.6184082,0.49121094,0.6635742,-0.51013184,-0.093933105,0.10821533,80 
-15.640259,19.16504,-42.95349,0.6152344,0.51220703,0.671875,-0.51013184,-0.093933105,0.10821533,81 
-13.48877,17.745972,-44.0979,0.6130371,0.5126953,0.6767578,-0.51013184,-0.093933105,0.10821533,82 
-10.925293,16.983032,-44.204712,0.6154785,0.50927734,0.6711426,-0.51416016,-0.09466553,0.112976074,83 
-5.6152344,17.486572,-43.48755,0.6159668,0.5185547,0.66503906,-0.51416016,-0.09466553,0.112976074,84 
-2.090454,11.795044,-42.129517,0.6286621,0.51464844,0.65527344,-0.51672363,-0.09539795,0.11114502,85 
3.692627,16.021729,-40.20691,0.6437988,0.51220703,0.63964844,-0.51672363,-0.09539795,0.11114502,86 
4.79126,16.75415,-37.857056,0.6459961,0.48706055,0.6230469,-0.51672363,-0.09539795,0.11114502,87 
3.9978027,18.28003,-36.712646,0.64453125,0.46264648,0.6113281,-0.5181885,-0.089904785,0.11114502,88 
5.569458,20.492554,-38.711548,0.6413574,0.43530273,0.5917969,-0.5181885,-0.089904785,0.11114502,89 
9.384155,22.43042,-33.569336,0.64453125,0.41918945,0.5686035,-0.5181885,-0.09100342,0.108947754,90 
17.39502,25.787354,-30.334473,0.65356445,0.42333984,0.5419922,-0.5181885,-0.09100342,0.108947754,91 
24.780273,30.151367,-26.519775,0.6682129,0.4165039,0.51831055,-0.5181885,-0.09100342,0.108947754,92 
27.252197,33.737183,-20.401001,0.6789551,0.41088867,0.4921875,-0.52404785,-0.090270996,0.105285645,93 
34.469604,37.94861,-13.336182,0.689209,0.4169922,0.46679688,-0.52404785,-0.090270996,0.105285645,94 
45.272827,42.266846,-3.616333,0.6982422,0.42529297,0.43896484,-0.52001953,-0.08807373,0.1104126,95 
54.9469,46.26465,4.760742,0.6984863,0.44091797,0.41625977,-0.52001953,-0.08807373,0.1104126,96 
77.01111,46.47827,15.487671,0.7067871,0.4621582,0.3942871,-0.52001953,-0.08807373,0.1104126,97 
103.05786,49.9115,29.663086,0.7080078,0.45996094,0.4350586,-0.5255127,-0.08807373,0.109680176,98 
124.54224,50.994873,35.751343,0.7092285,0.45361328,0.35424805,-0.5255127,-0.08807373,0.109680176,99 
145.401,50.476074,45.196533,0.7270508,0.43579102,0.33984375,-0.5251465,-0.08294678,0.105285645,100 
167.48047,44.021606,60.058594,0.7626953,0.4152832,0.33129883,-0.5251465,-0.08294678,0.105285645,101 
179.97742,41.259766,72.34192,0.79711914,0.4111328,0.3383789,-0.5251465,-0.08294678,0.105285645,102 
194.0918,37.490845,87.44812,0.83081055,0.4074707,0.35620117,-0.5266113,-0.0770874,0.09613037,103 
191.58936,30.807495,104.263306,0.86865234,0.35498047,0.39013672,-0.5266113,-0.0770874,0.09613037,104 
180.87769,20.339966,119.32373,0.9008789,0.28320312,0.44848633,-0.5229492,-0.06829834,0.08477783,105 
158.72192,8.926392,134.38416,0.9147949,0.1850586,0.5004883,-0.5229492,-0.06829834,0.08477783,106 
124.64905,-0.12207031,145.0653,0.90185547,0.103027344,0.5229492,-0.5229492,-0.06829834,0.08477783,107 
100.96741,-7.095337,147.90344,0.87646484,0.05029297,0.5283203,-0.5218506,-0.06939697,0.0803833,108 
79.54407,-15.975952,149.49036,0.86572266,0.0024414062,0.53149414,-0.5218506,-0.06939697,0.0803833,109 
59.96704,-24.551392,150.34485,0.8605957,-0.03173828,0.52368164,-0.5097656,-0.06756592,0.073791504,110 
52.41394,-27.526855,149.9176,0.84350586,-0.02758789,0.5144043,-0.5097656,-0.06756592,0.073791504,111 
57.525635,-39.367676,151.32141,0.8310547,-0.0024414062,0.5148926,-0.5097656,-0.06756592,0.073791504,112 
68.77136,-58.944702,153.19824,0.82250977,0.013916016,0.5090332,-0.5031738,-0.06976318,0.07269287,113 
60.531616,-63.2782,148.39172,0.8054199,0.05029297,0.50878906,-0.5031738,-0.06976318,0.07269287,114 
65.26184,-63.62915,140.3656,0.77612305,0.11694336,0.51538086,-0.4951172,-0.07232666,0.06756592,115 
66.63513,-68.740845,132.82776,0.7565918,0.1394043,0.5341797,-0.4951172,-0.07232666,0.06756592,116 
61.416626,-70.60242,126.434326,0.7282715,0.15112305,0.55908203,-0.4951172,-0.07232666,0.06756592,117 
43.823242,-69.15283,116.80603,0.6953125,0.14038086,0.61206055,-0.48742676,-0.07196045,0.066467285,118 
15.029907,-67.50488,94.84863,0.67529297,0.13549805,0.6652832,-0.48742676,-0.07196045,0.066467285,119 
-5.0354004,-69.03076,83.51135,0.66259766,0.14624023,0.7163086,-0.47973633,-0.07232666,0.062805176,120 
-43.304443,-69.32068,65.17029,0.6413574,0.14282227,0.7595215,-0.47973633,-0.07232666,0.062805176,121 
-110.702515,-63.23242,42.099,0.5949707,0.11230469,0.7832031,-0.47973633,-0.07232666,0.062805176,122 
-142.77649,-61.00464,32.730103,0.56103516,0.14038086,0.7871094,-0.4753418,-0.08074951,0.066101074,123 
-159.37805,-63.52234,24.246216,0.5205078,0.18676758,0.7770996,-0.4753418,-0.08074951,0.066101074,124 
-178.42102,-65.49072,10.070801,0.48535156,0.22338867,0.74975586,-0.46618652,-0.08404541,0.07122803,125 
-186.84387,-68.46619,4.3792725,0.45263672,0.27001953,0.71362305,-0.46618652,-0.08404541,0.07122803,126 
-194.07654,-72.509766,1.4343262,0.4248047,0.30004883,0.6489258,-0.46618652,-0.08404541,0.07122803,127 
-197.15881,-72.84546,0.2593994,0.40063477,0.33276367,0.57910156,-0.46472168,-0.09283447,0.08001709,128 
-187.74414,-73.10486,1.0223389,0.3737793,0.35424805,0.5241699,-0.46472168,-0.09283447,0.08001709,129 
-175.21667,-71.56372,-5.8135986,0.33618164,0.38183594,0.49804688,-0.4555664,-0.101623535,0.09136963,130 
-162.93335,-71.22803,-16.235352,0.30688477,0.42211914,0.48608398,-0.4555664,-0.101623535,0.09136963,131 
-157.95898,-70.46509,-22.338867,0.29077148,0.45214844,0.47924805,-0.4555664,-0.101623535,0.09136963,132 
-158.46252,-67.44385,-22.567749,0.2854004,0.46484375,0.47094727,-0.45483398,-0.11407471,0.09906006,133 
-167.73987,-63.62915,-20.568848,0.28466797,0.45922852,0.4584961,-0.45483398,-0.11407471,0.09906006,134 
-188.36975,-62.088013,-18.966675,0.28710938,0.4584961,0.43945312,-0.45043945,-0.11627197,0.10638428,135 
-213.98926,-63.034058,-22.781372,0.30932617,0.48754883,0.44970703,-0.45043945,-0.11627197,0.10638428,136 
-285.4004,-65.582275,-25.238037,0.38720703,0.4963379,0.5073242,-0.45043945,-0.11627197,0.10638428,137 
-303.51257,-88.7146,-13.671875,0.44140625,0.72265625,0.5883789,-0.45263672,-0.12506104,0.12286377,138 
-256.6223,-104.3396,7.003784,0.45092773,0.9362793,0.6723633,-0.45263672,-0.12506104,0.12286377,139 
-210.95276,-114.79187,17.37976,0.47607422,1.057373,0.73339844,-0.44604492,-0.13677979,0.137146,140 
-185.65369,-122.528076,27.023315,0.50341797,1.1105957,0.75756836,-0.44604492,-0.13677979,0.137146,141 
-152.83203,-124.66431,40.649414,0.5073242,1.1257324,0.75561523,-0.44604492,-0.13677979,0.137146,142 
-116.13464,-118.6676,52.41394,0.48754883,1.1044922,0.73339844,-0.44311523,-0.14447021,0.1506958,143 
-85.876465,-111.6333,58.36487,0.45776367,1.0437012,0.7019043,-0.44311523,-0.14447021,0.1506958,144 
-56.930542,-104.034424,61.75232,0.43188477,0.97094727,0.66381836,-0.4317627,-0.15032959,0.15655518,145 
-28.61023,-96.450806,65.03296,0.4140625,0.88012695,0.62939453,-0.4317627,-0.15032959,0.15655518,146 
-15.670776,-93.948364,66.36047,0.40649414,0.79785156,0.60375977,-0.4317627,-0.15032959,0.15655518,147 
-11.764526,-94.03992,67.30652,0.4008789,0.7062988,0.5876465,-0.4248047,-0.15289307,0.1605835,148 
-14.99939,-93.933105,67.16919,0.39404297,0.64990234,0.58325195,-0.4248047,-0.15289307,0.1605835,149 
-26.184082,-95.01648,67.64221,0.38720703,0.6184082,0.5866699,-0.41967773,-0.14776611,0.15875244,150 
-40.20691,-94.61975,67.93213,0.38330078,0.6086426,0.59716797,-0.41967773,-0.14776611,0.15875244,151 
-62.37793,-94.13147,70.09888,0.37817383,0.61694336,0.6098633,-0.41967773,-0.14776611,0.15875244,152 
-79.74243,-91.01868,72.99805,0.3671875,0.63549805,0.6208496,-0.40759277,-0.15362549,0.15875244,153 
-92.60559,-82.6416,73.898315,0.3515625,0.66259766,0.6279297,-0.40759277,-0.15362549,0.15875244,154 
-99.227905,-77.804565,77.98767,0.3383789,0.6933594,0.62231445,-0.3980713,-0.15655518,0.17266846,155 
-106.88782,-68.7561,66.13159,0.32421875,0.71484375,0.60913086,-0.3980713,-0.15655518,0.17266846,156 
-123.809814,-50.14038,42.32788,0.3256836,0.74316406,0.5847168,-0.3980713,-0.15655518,0.17266846,157 
-126.46484,-39.79492,39.031982,0.30908203,0.7780762,0.5683594,-0.39331055,-0.15875244,0.17852783,158 
-120.529175,-26.809692,36.468506,0.26000977,0.8083496,0.5656738,-0.39331055,-0.15875244,0.17852783,159 
-103.66821,-17.425537,32.25708,0.21899414,0.81469727,0.5600586,-0.39294434,-0.16241455,0.1876831,160 
-93.12439,-5.264282,24.07837,0.18408203,0.79345703,0.55615234,-0.39294434,-0.16241455,0.1876831,161 
-109.84802,13.336182,-11.383057,0.18579102,0.77978516,0.5529785,-0.39294434,-0.16241455,0.1876831,162 
-114.63928,16.967773,-29.525757,0.203125,0.8117676,0.5559082,-0.3918457,-0.1638794,0.19244385,163 
-102.95105,28.7323,-53.344727,0.2097168,0.8955078,0.56274414,-0.3918457,-0.1638794,0.19244385,164 
-72.58606,27.770996,-57.86133,0.19921875,0.9748535,0.5461426,-0.3922119,-0.1671753,0.20489502,165 
-41.046143,39.855957,-59.936523,0.16748047,1.0556641,0.5258789,-0.3922119,-0.1671753,0.20489502,166 
-1.3275146,36.071777,-54.840088,0.15966797,1.1396484,0.5053711,-0.3922119,-0.1671753,0.20489502,167 
33.218384,25.024414,-51.452637,0.18432617,1.2080078,0.5058594,-0.3984375,-0.16864014,0.20379639,168 
71.91467,16.983032,-26.275635,0.20996094,1.2849121,0.5390625,-0.3984375,-0.16864014,0.20379639,169 
117.67578,16.12854,10.787964,0.23095703,1.3088379,0.5395508,-0.4020996,-0.16644287,0.20013428,170 
144.05823,10.757446,32.302856,0.26000977,1.2958984,0.5197754,-0.4020996,-0.16644287,0.20013428,171 
178.17688,10.7421875,64.86511,0.25390625,1.2087402,0.46557617,-0.4020996,-0.16644287,0.20013428,172 
178.87878,14.923096,74.00513,0.2121582,1.0361328,0.38989258,-0.39990234,-0.16680908,0.18914795,173 
145.20264,11.016846,57.937622,0.18041992,0.85424805,0.34375,-0.39990234,-0.16680908,0.18914795,174 
101.31836,7.30896,48.553467,0.14428711,0.7463379,0.33666992,-0.3984375,-0.16314697,0.18292236,175 
69.45801,6.439209,47.180176,0.12573242,0.6298828,0.36669922,-0.3984375,-0.16314697,0.18292236,176 
78.85742,14.297485,45.12024,0.1274414,0.6591797,0.40234375,-0.3984375,-0.16314697,0.18292236,177 
91.21704,11.154175,41.44287,0.15673828,0.673584,0.4296875,-0.39440918,-0.15875244,0.17266846,178 
113.67798,8.361816,42.922974,0.20117188,0.7199707,0.4663086,-0.39440918,-0.15875244,0.17266846,179 
136.35254,4.699707,47.454834,0.23608398,0.7363281,0.49072266,-0.39660645,-0.15802002,0.16571045,180 
141.34216,6.1798096,48.14148,0.25268555,0.7224121,0.5048828,-0.39660645,-0.15802002,0.16571045,181 
137.43591,8.712769,48.461914,0.26171875,0.70532227,0.51342773,-0.39660645,-0.15802002,0.15216064,182 
134.65881,8.773804,50.811768,0.2758789,0.7133789,0.53637695,-0.3918457,-0.15509033,0.15216064,183 
137.43591,9.414673,54.016113,0.28857422,0.70288086,0.56274414,-0.3918457,-0.15509033,0.15216064,184 
131.43921,9.002686,55.96924,0.30688477,0.654541,0.5917969,-0.38964844,-0.14959717,0.14630127,185 
118.515015,9.155273,57.678223,0.32861328,0.59887695,0.60791016,-0.38964844,-0.14959717,0.14630127,186 
105.285645,11.672974,57.998657,0.34204102,0.5756836,0.61865234,-0.38964844,-0.14959717,0.14630127,187 
91.049194,16.067505,57.9834,0.34814453,0.5895996,0.61572266,-0.38012695,-0.14703369,0.13604736,188 
90.11841,20.523071,58.83789,0.34594727,0.6188965,0.6147461,-0.38012695,-0.14703369,0.13604736,189 
92.36145,28.152466,57.58667,0.33642578,0.63134766,0.61376953,-0.38232422,-0.14117432,0.13128662,190 
90.51514,35.15625,53.741455,0.32250977,0.61328125,0.6203613,-0.38232422,-0.14117432,0.13128662,191 
87.96692,39.45923,52.490234,0.30419922,0.5883789,0.63378906,-0.38232422,-0.14117432,0.13128662,192 
88.11951,41.610718,50.109863,0.28173828,0.5744629,0.6501465,-0.375,-0.1404419,0.124694824,193 
89.99634,45.37964,47.01233,0.25927734,0.5644531,0.66845703,-0.375,-0.1404419,0.124694824,194 
88.256836,48.27881,42.3584,0.23876953,0.56274414,0.68652344,-0.37426758,-0.13421631,0.121398926,195 
88.50098,53.54309,36.590576,0.22045898,0.5812988,0.7067871,-0.37426758,-0.13421631,0.121398926,196 
83.847046,56.350708,29.296875,0.21020508,0.6147461,0.7290039,-0.37426758,-0.13421631,0.113708496,197 
91.40015,55.526733,25.558472,0.21386719,0.68237305,0.74975586,-0.3753662,-0.1305542,0.113708496,198 
98.083496,57.32727,25.512695,0.20336914,0.70043945,0.76782227,-0.3753662,-0.1305542,0.113708496,199 
99.33472,57.769775,21.194458,0.20336914,0.72265625,0.7709961,-0.3779297,-0.12506104,0.10821533,200 
101.989746,57.632446,20.141602,0.21362305,0.72314453,0.76708984,-0.3779297,-0.12506104,0.10821533,201 
106.87256,57.281494,19.226074,0.22167969,0.71655273,0.7536621,-0.3779297,-0.12506104,0.10821533,202 
114.730835,57.754517,18.78357,0.23291016,0.6977539,0.7390137,-0.3753662,-0.12030029,0.09539795,203 
115.371704,59.051514,17.547607,0.24267578,0.657959,0.7355957,-0.3753662,-0.12030029,0.09539795,204 
111.90796,61.447144,12.161255,0.2421875,0.6159668,0.7373047,-0.37316895,-0.11553955,0.09173584,205 
103.302,63.323975,4.40979,0.24511719,0.5600586,0.7441406,-0.37316895,-0.11553955,0.09173584,206 
84.76257,65.44495,-2.3345947,0.24389648,0.4897461,0.74975586,-0.37316895,-0.11553955,0.09173584,207 
74.76807,65.23132,-7.1868896,0.25146484,0.45141602,0.7441406,-0.37756348,-0.1071167,0.085510254,208 
67.29126,62.042236,-12.802124,0.25878906,0.4267578,0.74072266,-0.37756348,-0.1071167,0.085510254,209 
68.02368,57.159424,-19.317627,0.2590332,0.4338379,0.7495117,-0.37902832,-0.10418701,0.085510254,210 
64.52942,54.153442,-21.621704,0.27026367,0.45703125,0.7663574,-0.37902832,-0.10418701,0.085510254,211 
61.569214,49.804688,-21.697998,0.2998047,0.50512695,0.77905273,-0.37902832,-0.09942627,0.07672119,212 
55.770874,48.00415,-18.112183,0.33154297,0.53125,0.7758789,-0.38598633,-0.09942627,0.07672119,213 
46.813965,45.196533,-13.687134,0.35766602,0.53808594,0.77197266,-0.38598633,-0.09942627,0.07672119,214 
36.132812,39.978027,-9.857178,0.37280273,0.52368164,0.76538086,-0.39001465,-0.09613037,0.07232666,215 
29.23584,34.194946,-8.972168,0.3762207,0.51953125,0.7680664,-0.39001465,-0.09613037,0.07232666,216 
24.017334,30.090332,-9.338379,0.36254883,0.50561523,0.76953125,-0.39001465,-0.09613037,0.07232666,217 
15.762329,26.321411,-11.856079,0.34326172,0.49389648,0.77612305,-0.39001465,-0.09210205,0.073791504,218 
9.613037,25.482178,-15.258789,0.3256836,0.4934082,0.7878418,-0.39001465,-0.09210205,0.073791504,219 
0.0,23.834229,-19.363403,0.30859375,0.4855957,0.8046875,-0.3922119,-0.09466553,0.06903076,220 
-9.887695,23.773193,-22.583008,0.3005371,0.48706055,0.8083496,-0.3922119,-0.09466553,0.06903076,221 
-16.784668,20.751953,-26.19934,0.3017578,0.5090332,0.80371094,-0.3922119,-0.09466553,0.15765381,222 
-15.945435,20.080566,-26.70288,0.30444336,0.53393555,0.79711914,-0.3947754,-0.09283447,0.06390381,223 
-19.02771,19.821167,-28.121948,0.30664062,0.5529785,0.77563477,-0.3947754,-0.09283447,0.06390381,224 
-20.6604,19.042969,-29.281616,0.31054688,0.564209,0.7531738,-0.3951416,-0.09686279,0.07159424,225 
-15.960693,20.385742,-27.09961,0.32006836,0.5786133,0.7348633,-0.3951416,-0.09686279,0.07159424,226 
-13.366699,21.942139,-26.71814,0.32739258,0.58154297,0.71972656,-0.39440918,-0.097595215,0.06756592,227 
-12.207031,24.627686,-27.633667,0.3322754,0.5749512,0.7092285,-0.39440918,-0.097595215,0.06756592,228 
-10.025024,22.766113,-27.374268,0.34179688,0.56396484,0.7036133,-0.39440918,-0.097595215,0.06756592,229 
-2.5177002,21.392822,-27.664185,0.34570312,0.56030273,0.7114258,-0.3980713,-0.09686279,0.07489014,230 
-2.4414062,22.079468,-30.090332,0.34570312,0.55126953,0.7150879,-0.3980713,-0.09686279,0.07489014,231 
-2.029419,21.850586,-32.15027,0.34814453,0.54711914,0.71240234,-0.3980713,-0.09686279,0.074523926,232 
-2.6855469,23.452759,-34.988403,0.34887695,0.54541016,0.70996094,-0.40246582,-0.09686279,0.074523926,233 
-4.91333,24.520874,-36.743164,0.3503418,0.53881836,0.7038574,-0.40246582,-0.09686279,0.074523926,234 
-9.063721,25.83313,-39.215088,0.3486328,0.5280762,0.6972656,-0.40319824,-0.09246826,0.073791504,235 
-9.475708,26.58081,-40.405273,0.3491211,0.51538086,0.69140625,-0.40319824,-0.09246826,0.073791504,236 
-11.138916,27.175903,-42.434692,0.35205078,0.5019531,0.68408203,-0.40319824,-0.09246826,0.07525635,237 
-17.089844,27.786255,-45.166016,0.3642578,0.48120117,0.67163086,-0.40100098,-0.09576416,0.07525635,238 
-28.137207,29.968262,-47.98889,0.38085938,0.45288086,0.64331055,-0.40100098,-0.09576416,0.07525635,239 
-36.972046,30.929565,-51.223755,0.40185547,0.43286133,0.6147461,-0.41052246,-0.09869385,0.077819824,240 
-39.871216,29.067993,-55.480957,0.42895508,0.43847656,0.59375,-0.41052246,-0.09869385,0.077819824,241 
-32.211304,24.07837,-58.929443,0.45776367,0.4892578,0.623291,-0.40979004,-0.09649658,0.0803833,242 
-23.132324,21.728516,-56.47278,0.46948242,0.50878906,0.66625977,-0.40979004,-0.09649658,0.0803833,243 
-17.700195,18.417358,-50.50659,0.4807129,0.513916,0.7084961,-0.40979004,-0.09649658,0.0803833,244 
-21.28601,16.540527,-46.813965,0.48217773,0.4946289,0.73535156,-0.4182129,-0.09832764,0.08294678,245 
-39.68811,16.403198,-45.715332,0.47070312,0.49829102,0.74243164,-0.4182129,-0.09832764,0.08294678,246 
-71.57898,16.082764,-46.401978,0.46044922,0.34399414,0.7219238,-0.4182129,-0.101989746,0.08514404,247 
-113.464355,13.519287,-47.729492,0.44506836,0.23925781,0.67700195,-0.42077637,-0.101989746,0.08514404,248 
-151.38245,13.183594,-47.60742,0.43896484,0.14941406,0.6437988,-0.42077637,-0.101989746,0.08514404,249 
-187.08801,10.848999,-44.647217,0.4338379,0.06982422,0.60668945,-0.4222412,-0.10601807,0.09136963,250 
-219.20776,8.773804,-43.640137,0.43188477,-0.029052734,0.5690918,-0.4222412,-0.10601807,0.09136963,251 
-266.75415,-17.51709,-41.641235,0.4501953,-0.059814453,0.5251465,-0.4222412,-0.11553955,0.09906006,252 
-323.13538,-59.555054,-34.072876,0.5148926,0.052734375,0.5227051,-0.42297363,-0.11553955,0.09906006,253 
-350.28076,-109.90906,-10.08606,0.59033203,0.19750977,0.55029297,-0.42297363,-0.11553955,0.09906006,254 
-366.95862,-149.52087,20.477295,0.6386719,0.4350586,0.5957031,-0.42260742,-0.12799072,0.12872314,255 
-389.16016,-178.34473,53.863525,0.6467285,0.57958984,0.6477051,-0.42260742,-0.12799072,0.12872314,0 
-427.73438,-180.95398,85.9375,0.59936523,0.6982422,0.625,-0.40905762,-0.14447021,0.15252686,1 
-425.5066,-185.60791,107.33032,0.5546875,0.81811523,0.6784668,-0.40905762,-0.14447021,0.15252686,2 
-426.1322,-180.09949,124.679565,0.5095215,0.8977051,0.6323242,-0.40905762,-0.14447021,0.15252686,3 
-427.49023,-170.51697,134.32312,0.4675293,0.95703125,0.5708008,-0.40026855,-0.15948486,0.18328857,4 
-417.60254,-157.57751,144.85168,0.41870117,0.97998047,0.50390625,-0.40026855,-0.15948486,0.18328857,5 
-403.61023,-152.96936,157.39441,0.3774414,0.9863281,0.41210938,-0.38781738,-0.17047119,0.21551514,6 
-380.1117,-140.0299,159.97314,0.32836914,0.9851074,0.32495117,-0.38781738,-0.17047119,0.21551514,7 
-356.21643,-133.27026,158.93555,0.27416992,0.98046875,0.23706055,-0.38781738,-0.17047119,0.21551514,8 
-335.54077,-129.19617,149.06311,0.2290039,0.9790039,0.17993164,-0.3753662,-0.17559814,0.24957275,9 
-302.04773,-127.39563,143.0664,0.16748047,0.99316406,0.14428711,-0.3753662,-0.17559814,0.24957275,10 
-265.67078,-121.38367,130.90515,0.11254883,1.0297852,0.12719727,-0.36364746,-0.17816162,0.27191162,11 
-229.61426,-115.32593,120.773315,0.064208984,1.0700684,0.12988281,-0.36364746,-0.17816162,0.27191162,12 
-199.95117,-102.20337,99.07532,0.027832031,1.1032715,0.1459961,-0.36364746,-0.17816162,0.27191162,13 
-176.34583,-96.75598,81.604004,0.010253906,1.130127,0.16210938,-0.35668945,-0.1741333,0.29351807,14 
-157.44019,-95.73364,71.33484,-0.012939453,1.1467285,0.18066406,-0.35668945,-0.1741333,0.29351807,15 
-139.86206,-78.063965,55.999756,-0.044921875,1.1501465,0.19897461,-0.3486328,-0.1774292,0.29974365,16 
-128.92151,-64.575195,41.015625,-0.05859375,1.1467285,0.20800781,-0.3486328,-0.1774292,0.29974365,17 
-115.38696,-46.3562,27.84729,-0.07446289,1.1394043,0.21166992,-0.3486328,-0.1774292,0.29974365,18 
-100.76904,-25.482178,12.374878,-0.07788086,1.1276855,0.20800781,-0.34716797,-0.17852783,0.31878662,19 
-82.82471,-12.771606,6.790161,-0.06958008,1.1052246,0.19628906,-0.34716797,-0.17852783,0.31878662,20 
-60.134888,1.9226074,-1.5869141,-0.06225586,1.0847168,0.17553711,-0.34753418,-0.17340088,0.32061768,21 
-32.74536,16.433716,-9.384155,-0.045410156,1.0639648,0.15356445,-0.34753418,-0.17340088,0.32061768,22 
-8.605957,21.697998,-13.214111,-0.015380859,1.0454102,0.13720703,-0.34753418,-0.17340088,0.32061768,23 
8.590698,26.19934,-15.792847,0.010009766,1.0183105,0.13232422,-0.3482666,-0.17156982,0.3242798,24 
18.188477,30.563354,-17.868042,0.028808594,0.9926758,0.13647461,-0.3482666,-0.17156982,0.3242798,25 
21.255493,33.355713,-19.210815,0.041015625,0.9719238,0.14648438,-0.34643555,-0.1741333,0.3217163,26 
20.523071,35.354614,-20.065308,0.048095703,0.9562988,0.15673828,-0.34643555,-0.1741333,0.3217163,27 
17.425537,36.849976,-20.690918,0.053466797,0.94921875,0.16845703,-0.34643555,-0.1741333,0.3217163,28 
13.549805,36.743164,-20.79773,0.057617188,0.94750977,0.1772461,-0.35339355,-0.17523193,0.317688,29 
7.461548,36.91101,-22.064209,0.0625,0.9506836,0.18701172,-0.35339355,-0.17523193,0.317688,30 
-1.6479492,35.91919,-19.561768,0.06958008,0.9592285,0.19213867,-0.34973145,-0.17230225,0.3143921,31 
-9.887695,34.66797,-23.651123,0.080322266,0.9680176,0.19360352,-0.34973145,-0.17230225,0.3143921,32 
-18.585205,33.416748,-24.139404,0.09399414,0.9790039,0.19067383,-0.34973145,-0.17230225,0.3143921,33 
-27.023315,31.738281,-24.017334,0.11035156,0.986084,0.18261719,-0.35302734,-0.17266846,0.31585693,34 
-31.768799,29.052734,-23.712158,0.13012695,0.9914551,0.17138672,-0.35302734,-0.17266846,0.31585693,35 
-34.973145,25.238037,-21.78955,0.1472168,0.99487305,0.15795898,-0.35083008,-0.17633057,0.31549072,36 
-35.690308,20.78247,-19.851685,0.16186523,0.9941406,0.14672852,-0.35083008,-0.17633057,0.31549072,37 
-34.744263,16.220093,-17.242432,0.17456055,0.9851074,0.13647461,-0.35083008,-0.17633057,0.31549072,38 
-29.296875,6.729126,-14.11438,0.18676758,0.96875,0.12060547,-0.35559082,-0.17669678,0.3217163,39 
-15.670776,4.4555664,-8.117676,0.18237305,0.9711914,0.10131836,-0.35559082,-0.17669678,0.3217163,40 
-5.8288574,5.0811768,-8.956909,0.18286133,0.9824219,0.08520508,-0.35559082,-0.17523193,0.32391357,41 
-0.5950928,-0.90026855,-9.124756,0.19433594,0.98217773,0.08251953,-0.35559082,-0.17523193,0.32391357,42 
-2.8076172,-6.3323975,-5.5389404,0.19848633,0.97094727,0.092041016,-0.35559082,-0.17523193,0.32391357,43 
-8.31604,-7.797241,-2.380371,0.19384766,0.9597168,0.10473633,-0.35998535,-0.1774292,0.32208252,44 
-16.464233,-9.017944,0.77819824,0.1850586,0.9562988,0.11328125,-0.35998535,-0.1774292,0.32208252,45 
-22.735596,-8.2092285,3.6621094,0.17822266,0.96191406,0.118896484,-0.35559082,-0.17852783,0.32208252,46 
-27.22168,-8.117676,5.6762695,0.17358398,0.97094727,0.11767578,-0.35559082,-0.17852783,0.32208252,47 
-27.053833,-7.3547363,7.6446533,0.16625977,0.9807129,0.114990234,-0.35559082,-0.17852783,0.32208252,48 
-28.381348,-7.019043,9.048462,0.16186523,0.986084,0.111816406,-0.35375977,-0.17523193,0.33050537,49 
-27.755737,-7.232666,10.192871,0.1574707,0.98779297,0.107177734,-0.35375977,-0.17523193,0.33050537,50 
-25.741577,-6.134033,10.253906,0.15161133,0.9880371,0.10058594,-0.3511963,-0.17596436,0.32757568,51 
-22.583008,-4.8828125,9.521484,0.14477539,0.9929199,0.09472656,-0.3511963,-0.17596436,0.32757568,52 
-18.844604,-4.6539307,8.575439,0.13989258,1.0002441,0.09106445,-0.3511963,-0.17596436,0.32757568,53 
-15.182495,-4.425049,7.9040527,0.13891602,1.0031738,0.09008789,-0.3519287,-0.17523193,0.33013916,54 
-14.205933,-3.6468506,8.026123,0.13720703,0.99975586,0.091552734,-0.3519287,-0.17523193,0.33013916,55 
-14.053345,-3.250122,3.90625,0.13354492,0.9970703,0.092041016,-0.35009766,-0.17523193,0.33563232,56 
-13.244629,-2.1820068,8.43811,0.13134766,0.9953613,0.08935547,-0.35009766,-0.17523193,0.33563232,57 
-12.435913,-1.7547607,8.468628,0.12939453,0.9938965,0.08691406,-0.35009766,-0.17523193,0.33563232,58 
-11.917114,-1.5716553,8.7890625,0.12915039,0.9946289,0.084472656,-0.35375977,-0.17596436,0.3345337,59 
-11.138916,-0.5645752,8.987427,0.12866211,0.9958496,0.084228516,-0.35375977,-0.17596436,0.3345337,60 
-9.185791,-1.083374,8.956909,0.1274414,0.9975586,0.08276367,-0.34606934,-0.17559814,0.3345337,61 
-8.483887,-0.9613037,8.239746,0.125,0.9992676,0.08276367,-0.34606934,-0.17559814,0.3345337,62 
-6.454468,-1.449585,8.132935,0.123535156,0.99975586,0.083740234,-0.34606934,-0.17559814,0.3345337,63 
-5.0964355,-1.2664795,7.4310303,0.12036133,1.0012207,0.083740234,-0.34973145,-0.17376709,0.338562,64 
-3.9367676,-1.6174316,6.1798096,0.11694336,1.0019531,0.084228516,-0.34973145,-0.17376709,0.338562,65 
-4.3182373,-1.6479492,4.7302246,0.11401367,1.0012207,0.0859375,-0.35046387,-0.1741333,0.33709717,66 
-3.6468506,-1.4190674,3.616333,0.111572266,1.0002441,0.08691406,-0.35046387,-0.1741333,0.33709717,67 
-2.5024414,-1.2817383,2.105713,0.1081543,0.99975586,0.08666992,-0.35046387,-0.1741333,0.33709717,68 
-2.090454,-0.90026855,0.7019043,0.10620117,0.99853516,0.0859375,-0.34973145,-0.17559814,0.3381958,69 
-2.380371,-0.5340576,-0.30517578,0.10473633,0.9968262,0.08691406,-0.34973145,-0.17559814,0.3381958,70 
-2.1209717,-0.5645752,-0.9918213,0.10449219,0.9958496,0.08618164,-0.35083008,-0.17523193,0.33892822,71 
-0.47302246,0.5187988,-2.4871826,0.10180664,0.99731445,0.083740234,-0.35083008,-0.17523193,0.33892822,72 
0.030517578,0.39672852,-3.982544,0.1015625,0.9980469,0.08105469,-0.35083008,-0.17523193,0.33892822,73 
1.4190674,0.91552734,-4.4555664,0.10107422,0.9975586,0.080078125,-0.3544922,-0.17559814,0.33966064,74 
0.8544922,1.0070801,-5.279541,0.10058594,0.9980469,0.08276367,-0.3544922,-0.17559814,0.33966064,75 
2.5939941,0.579834,-5.6610107,0.10058594,0.9975586,0.08081055,-0.35229492,-0.17486572,0.34295654,76 
3.036499,1.2207031,-6.011963,0.100097656,0.9975586,0.079833984,-0.35229492,-0.17486572,0.34295654,77 
3.0517578,1.5106201,-6.3934326,0.099609375,0.99609375,0.07836914,-0.35229492,-0.17486572,0.34295654,78 
1.449585,1.5869141,-6.6375732,0.09863281,0.99487305,0.07763672,-0.35559082,-0.17193604,0.34039307,79 
-0.39672852,1.9836426,-7.1411133,0.09741211,0.9946289,0.080322266,-0.35559082,-0.17193604,0.34039307,80 
0.61035156,2.609253,-7.4310303,0.09643555,0.9951172,0.07739258,-0.3511963,-0.17559814,0.3418579,81 
0.93078613,3.1585693,-8.026123,0.095947266,0.9963379,0.07446289,-0.3511963,-0.17559814,0.3418579,82 
1.6021729,3.7078857,-8.804321,0.09667969,0.9958496,0.07324219,-0.3511963,-0.17559814,0.3418579,83 
1.6479492,3.9672852,-9.399414,0.09692383,0.99609375,0.07324219,-0.35375977,-0.17303467,0.33929443,84 
1.083374,5.569458,-9.490967,0.09814453,0.99731445,0.07324219,-0.35375977,-0.17303467,0.33929443,85 
1.876831,5.874634,-10.299683,0.099853516,0.99853516,0.07348633,-0.35705566,-0.1741333,0.3411255,86 
4.0130615,7.461548,-10.681152,0.10180664,0.9995117,0.072265625,-0.35705566,-0.1741333,0.3411255,87 
6.0272217,8.331299,-10.4522705,0.103515625,1.0002441,0.0715332,-0.35705566,-0.1741333,0.3411255,88 
8.4991455,7.9040527,-10.848999,0.10620117,0.99975586,0.072509766,-0.35632324,-0.17449951,0.34075928,89 
10.1623535,8.270264,-11.09314,0.109375,1.0,0.07421875,-0.35632324,-0.17449951,0.34075928,90 
12.130737,9.20105,-12.039185,0.11376953,1.0002441,0.0769043,-0.3548584,-0.17266846,0.33673096,91 
13.900757,15.151978,-24.002075,0.12719727,1.0092773,0.08129883,-0.3548584,-0.17266846,0.33673096,92 
14.343262,12.359619,-23.132324,0.14257812,1.0229492,0.08300781,-0.3548584,-0.17266846,0.33673096,93 
22.247314,13.778687,-20.126343,0.13110352,1.03125,0.084472656,-0.3548584,-0.17523193,0.33892822,94 
27.572632,14.907837,-22.781372,0.123291016,1.027832,0.08569336,-0.3548584,-0.17523193,0.33892822,95 
31.173706,16.571045,-22.17102,0.12182617,1.0178223,0.083496094,-0.35961914,-0.1774292,0.3348999,96 
35.308838,16.448975,-20.996094,0.12695312,1.0068359,0.083496094,-0.35961914,-0.1774292,0.3348999,97 
37.475586,16.37268,-18.661499,0.13623047,0.9938965,0.08520508,-0.35961914,-0.1774292,0.3348999,98 
37.18567,16.571045,-14.709473,0.14331055,0.9831543,0.09277344,-0.36108398,-0.17669678,0.33233643,99 
34.27124,16.159058,-10.177612,0.15209961,0.97680664,0.10449219,-0.36108398,-0.17669678,0.33233643,100 
34.240723,15.670776,-6.2713623,0.15698242,0.9711914,0.109375,-0.35888672,-0.17779541,0.33050537,101 
30.776978,14.6484375,-2.6855469,0.16333008,0.9650879,0.114990234,-0.35888672,-0.17779541,0.33050537,102 
25.19226,11.856079,1.2817383,0.16870117,0.9543457,0.12133789,-0.35888672,-0.17779541,0.33050537,103 
20.401001,10.7421875,3.9978027,0.1694336,0.9448242,0.1303711,-0.36108398,-0.17706299,0.32354736,104 
14.785767,9.963989,6.30188,0.17089844,0.93896484,0.14111328,-0.36108398,-0.17706299,0.32354736,105 
10.116577,8.483887,8.239746,0.17260742,0.94018555,0.15136719,-0.3585205,-0.17596436,0.3250122,106 
7.080078,7.9956055,8.956909,0.17553711,0.94921875,0.15625,-0.3585205,-0.17596436,0.3250122,107 
5.6762695,6.5612793,9.536743,0.17944336,0.9621582,0.1574707,-0.3585205,-0.17596436,0.3250122,108 
4.058838,6.088257,10.299683,0.18310547,0.9760742,0.1550293,-0.3585205,-0.1774292,0.32611084,109 
3.0517578,5.5999756,12.10022,0.18554688,0.98583984,0.15014648,-0.3585205,-0.1774292,0.32611084,110 
3.463745,5.264282,13.900757,0.18603516,0.99487305,0.14453125,-0.3511963,-0.17669678,0.32537842,111 
4.623413,4.7302246,16.021729,0.18408203,1.0039062,0.1394043,-0.3511963,-0.17669678,0.32537842,112 
5.9814453,4.79126,17.501831,0.18066406,1.010498,0.13476562,-0.3511963,-0.17669678,0.32537842,113 
7.5683594,4.8828125,19.77539,0.17578125,1.015625,0.1303711,-0.35266113,-0.17926025,0.32720947,114 
8.7890625,5.355835,21.087646,0.17089844,1.015625,0.1274414,-0.35266113,-0.17926025,0.32720947,115 
10.3302,5.1574707,22.064209,0.16503906,1.0131836,0.12524414,-0.35375977,-0.17449951,0.32684326,116 
11.856079,5.7373047,22.949219,0.15893555,1.0117188,0.12426758,-0.35375977,-0.17449951,0.32684326,117 
11.871338,6.591797,23.391724,0.15307617,1.0068359,0.12451172,-0.35375977,-0.17449951,0.32684326,118 
12.161255,6.3934326,22.872925,0.14624023,1.0012207,0.12695312,-0.3511963,-0.17559814,0.31951904,119 
11.734009,6.9732666,22.67456,0.1381836,0.99438477,0.1328125,-0.3511963,-0.17559814,0.31951904,120 
14.526367,6.5460205,21.606445,0.13085938,0.9873047,0.13574219,-0.34606934,-0.17669678,0.32244873,121 
16.342163,6.652832,20.79773,0.12207031,0.9782715,0.14135742,-0.34606934,-0.17669678,0.32244873,122 
17.349243,5.7373047,18.38684,0.115234375,0.96533203,0.14746094,-0.34606934,-0.17669678,0.32244873,123 
16.63208,5.065918,15.106201,0.107177734,0.9543457,0.15454102,-0.34606934,-0.17852783,0.3213501,124 
14.61792,4.272461,12.710571,0.10180664,0.9433594,0.16064453,-0.34606934,-0.17852783,0.3213501,125 
13.214111,3.4942627,10.025024,0.09838867,0.9345703,0.16625977,-0.34936523,-0.17523193,0.3213501,126 
10.650635,2.2583008,6.454468,0.09643555,0.9316406,0.1706543,-0.34936523,-0.17523193,0.3213501,127 
7.7667236,1.7242432,5.41687,0.09667969,0.935791,0.17260742,-0.34936523,-0.17523193,0.3213501,128 
4.91333,0.5340576,4.3945312,0.099121094,0.9445801,0.171875,-0.34899902,-0.17669678,0.31622314,129 
0.74768066,-0.2746582,3.7994385,0.1027832,0.9562988,0.16894531,-0.34899902,-0.17669678,0.31622314,130 
-1.6021729,-1.8310547,4.0740967,0.10571289,0.9675293,0.16455078,-0.34643555,-0.1774292,0.3217163,131 
-4.425049,-1.8920898,4.7302246,0.1081543,0.9746094,0.16186523,-0.34643555,-0.1774292,0.3217163,132 
-6.8359375,-1.876831,6.1187744,0.10644531,0.9790039,0.15527344,-0.34643555,-0.1774292,0.3217163,133 
-5.6762695,-1.4801025,6.454468,0.104003906,0.9873047,0.14770508,-0.3413086,-0.17596436,0.31622314,134 
-3.7384033,-1.9989014,7.461548,0.103759766,0.98950195,0.140625,-0.3413086,-0.17596436,0.31622314,135 
-2.105713,-1.0681152,7.5531006,0.10180664,0.9851074,0.13696289,-0.34350586,-0.17816162,0.32061768,136 
-0.33569336,-1.6174316,7.9040527,0.09838867,0.9824219,0.13598633,-0.34350586,-0.17816162,0.32061768,137 
2.0446777,-1.9836426,8.026123,0.0949707,0.98095703,0.13842773,-0.34350586,-0.17816162,0.32061768,138 
4.0893555,-1.9683838,8.102417,0.09277344,0.9785156,0.1394043,-0.3449707,-0.1774292,0.31915283,139 
3.90625,-1.8005371,6.9885254,0.088134766,0.9699707,0.14208984,-0.3449707,-0.1774292,0.31915283,140 
2.1820068,-0.8087158,5.2948,0.083496094,0.95996094,0.14379883,-0.33911133,-0.1741333,0.32647705,141 
0.8087158,-0.45776367,2.670288,0.07836914,0.95214844,0.14697266,-0.33911133,-0.1741333,0.32647705,142 
0.50354004,1.2207031,0.62561035,0.07495117,0.9484863,0.14746094,-0.33911133,-0.1741333,0.32647705,143 
0.93078613,1.739502,-1.159668,0.07446289,0.94970703,0.14794922,-0.3416748,-0.17340088,0.32208252,144 
2.1820068,2.1972656,-2.5787354,0.076660156,0.9562988,0.1472168,-0.3416748,-0.17340088,0.32208252,145 
3.1738281,2.7008057,-3.3416748,0.07910156,0.96484375,0.1459961,-0.34313965,-0.17486572,0.32354736,146 
4.852295,2.7923584,-3.6773682,0.08227539,0.9753418,0.14575195,-0.34313965,-0.17486572,0.32354736,147 
5.6762695,3.112793,-3.1738281,0.08544922,0.982666,0.14501953,-0.34313965,-0.17486572,0.32025146,148 
6.378174,3.3874512,-2.8686523,0.08691406,0.9851074,0.14453125,-0.34204102,-0.17376709,0.32025146,149 
6.4086914,4.4555664,-3.0212402,0.08618164,0.9851074,0.14453125,-0.34204102,-0.17376709,0.32025146,150 
7.4920654,5.0201416,-3.0212402,0.08544922,0.98291016,0.14550781,-0.33911133,-0.17486572,0.3250122,151 
11.642456,5.569458,-3.3721924,0.08520508,0.9814453,0.14697266,-0.33911133,-0.17486572,0.3250122,152 
8.19397,6.42395,-7.7819824,0.08569336,0.9812012,0.14868164,-0.33911133,-0.17486572,0.3250122,153 
9.048462,6.9122314,-3.6468506,0.08642578,0.9855957,0.15161133,-0.33618164,-0.17523193,0.3184204,154 
9.185791,7.537842,-3.1738281,0.087402344,0.99316406,0.1538086,-0.33618164,-0.17523193,0.3184204,155 
8.850098,7.247925,-1.9226074,0.09106445,1.0004883,0.15722656,-0.34057617,-0.17486572,0.31878662,156 
6.210327,7.537842,-0.19836426,0.092041016,1.0029297,0.16064453,-0.34057617,-0.17486572,0.31878662,157 
4.425049,8.102417,0.5493164,0.08984375,1.0036621,0.16357422,-0.34057617,-0.17486572,0.31878662,158 
3.2196045,9.063721,1.0681152,0.08642578,1.0046387,0.16577148,-0.3416748,-0.17669678,0.31256104,159 
2.9449463,9.414673,1.5258789,0.0847168,1.0046387,0.16699219,-0.3416748,-0.17669678,0.31256104,160 
3.0975342,9.231567,1.0681152,0.08325195,1.0036621,0.16821289,-0.34057617,-0.17340088,0.31915283,161 
2.2583008,9.399414,0.6866455,0.08203125,1.0012207,0.16870117,-0.34057617,-0.17340088,0.31915283,162 
1.5411377,9.521484,-0.091552734,0.08178711,0.9968262,0.16772461,-0.34057617,-0.17523193,0.31585693,163 
1.5258789,9.185791,-1.0375977,0.08203125,0.99243164,0.16479492,-0.33874512,-0.17523193,0.31585693,164 
1.1901855,8.895874,-1.953125,0.083740234,0.98413086,0.16113281,-0.33874512,-0.17523193,0.31585693,165 
1.373291,8.682251,-2.5177002,0.08642578,0.97875977,0.15625,-0.34057617,-0.17559814,0.31622314,166 
2.4719238,8.94165,-3.2196045,0.09033203,0.9782715,0.15161133,-0.34057617,-0.17559814,0.31622314,167 
3.90625,8.392334,-3.9367676,0.09643555,0.98413086,0.14794922,-0.34057617,-0.17559814,0.31622314,168 
5.569458,7.3394775,-4.0740967,0.10253906,0.9934082,0.1459961,-0.33947754,-0.17559814,0.31072998,169 
6.011963,6.9885254,-2.8839111,0.107910156,1.003418,0.14526367,-0.33947754,-0.17559814,0.31072998,170 
7.0495605,5.9661865,-1.2207031,0.111083984,1.0085449,0.14501953,-0.33984375,-0.17449951,0.31658936,171 
6.8511963,4.7454834,-3.90625,0.1105957,1.0056152,0.14624023,-0.33984375,-0.17449951,0.31658936,172 
6.591797,4.272461,0.2593994,0.10546875,0.9963379,0.14648438,-0.33984375,-0.17449951,0.31658936,173 
6.8206787,3.6010742,0.0,0.099365234,0.9819336,0.14770508,-0.33654785,-0.1741333,0.3114624,174 
6.1035156,3.189087,-0.6866455,0.09399414,0.97094727,0.14916992,-0.33654785,-0.1741333,0.3114624,175 
6.378174,2.960205,-2.3498535,0.09082031,0.9655762,0.1508789,-0.34277344,-0.17449951,0.31622314,176 
6.0272217,2.532959,-3.9978027,0.09106445,0.96655273,0.15136719,-0.34277344,-0.17449951,0.31622314,177 
6.088257,1.6326904,-5.1727295,0.09375,0.9729004,0.15185547,-0.34094238,-0.1741333,0.3143921,178 
6.80542,0.8544922,-4.79126,0.09643555,0.9831543,0.15283203,-0.34094238,-0.1741333,0.3143921,179 
8.31604,0.4272461,-4.1046143,0.09887695,0.99316406,0.15356445,-0.34094238,-0.1741333,0.3143921,180 
9.033203,0.030517578,-2.9296875,0.1003418,1.003418,0.15478516,-0.34204102,-0.17230225,0.3147583,181 
9.70459,-0.30517578,-1.1749268,0.100097656,1.0078125,0.15600586,-0.34204102,-0.17230225,0.3147583,182 
10.848999,0.45776367,1.4038086,0.095947266,1.0068359,0.15893555,-0.34240723,-0.17047119,0.31219482,184 
11.123657,1.0986328,2.5787354,0.0949707,1.0039062,0.16064453,-0.34240723,-0.17047119,0.31219482,185 
10.818481,1.1444092,2.7618408,0.09350586,0.9980469,0.16308594,-0.34020996,-0.17449951,0.31585693,186 
10.879517,1.2512207,2.5634766,0.09326172,0.9909668,0.16601562,-0.34020996,-0.17449951,0.31585693,187 
11.108398,1.2817383,2.7160645,0.092041016,0.9851074,0.16772461,-0.34020996,-0.17449951,0.3118286,188 
11.688232,1.0070801,1.739502,0.09082031,0.9814453,0.16992188,-0.3416748,-0.17266846,0.3118286,189 
12.451172,0.5340576,0.9765625,0.09057617,0.97998047,0.17163086,-0.3416748,-0.17266846,0.3118286,190 
12.084961,3.768921,0.19836426,0.091796875,0.97998047,0.17285156,-0.3413086,-0.17230225,0.30963135,191 
11.550903,3.7384033,-0.50354004,0.09326172,0.97998047,0.17407227,-0.3413086,-0.17230225,0.30963135,192 
11.627197,-0.36621094,-1.1138916,0.09399414,0.9812012,0.17456055,-0.34057617,-0.17303467,0.30633545,193 
11.947632,-1.1444092,-1.9073486,0.09423828,0.98291016,0.17504883,-0.34057617,-0.17303467,0.30633545,194 
11.352539,-1.0070801,-1.953125,0.09375,0.9814453,0.17651367,-0.34057617,-0.17303467,0.30633545,195 
11.108398,-1.083374,-3.3416748,0.09326172,0.9760742,0.17602539,-0.33984375,-0.17486572,0.3081665,196 
10.238647,-0.47302246,-4.638672,0.09326172,0.9711914,0.17529297,-0.33984375,-0.17486572,0.3081665,197 
9.933472,0.2746582,-6.011963,0.0949707,0.9675293,0.17456055,-0.33984375,-0.17486572,0.30377197,198 
11.09314,0.6561279,-6.744385,0.09716797,0.96655273,0.17236328,-0.33984375,-0.17449951,0.30377197,199 
11.489868,0.4272461,-7.2784424,0.09887695,0.9667969,0.171875,-0.33984375,-0.17449951,0.30377197,200 
12.6953125,0.21362305,-8.163452,0.09814453,0.9658203,0.17089844,-0.34094238,-0.17559814,0.3085327,201 
14.11438,0.93078613,-9.82666,0.09765625,0.96533203,0.17358398,-0.34094238,-0.17559814,0.3085327,202 
15.655518,0.8544922,-10.08606,0.09667969,0.9658203,0.17675781,-0.34094238,-0.17596436,0.30670166,203 
15.960693,0.16784668,-10.681152,0.096191406,0.96655273,0.18115234,-0.33764648,-0.17596436,0.30670166,204 
14.724731,0.2746582,-10.147095,0.095214844,0.9663086,0.1862793,-0.33764648,-0.17596436,0.30670166,205 
14.160156,0.35095215,-9.750366,0.09375,0.9655762,0.18945312,-0.34057617,-0.17486572,0.3048706,206 
11.657715,0.30517578,-10.421753,0.092041016,0.96606445,0.19140625,-0.34057617,-0.17486572,0.3048706,207 
9.58252,-0.19836426,-11.047363,0.09106445,0.96655273,0.19189453,-0.33544922,-0.17303467,0.29608154,208 
7.736206,-0.44250488,-11.306763,0.09082031,0.96606445,0.19262695,-0.33544922,-0.17303467,0.29608154,209 
6.7749023,-0.91552734,-11.428833,0.091552734,0.96606445,0.19238281,-0.33544922,-0.17303467,0.29608154,210 
6.1035156,-1.4343262,-11.59668,0.091308594,0.9682617,0.19262695,-0.3416748,-0.17486572,0.30963135,211 
6.500244,-1.3122559,-11.459351,0.091796875,0.9719238,0.1928711,-0.3416748,-0.17486572,0.30963135,212 
6.713867,-1.0681152,-10.192871,0.092285156,0.97558594,0.19238281,-0.34020996,-0.17340088,0.30413818,213 
6.942749,-0.7324219,-8.972168,0.092041016,0.97558594,0.19165039,-0.34020996,-0.17340088,0.30413818,214 
7.1868896,0.015258789,-8.255005,0.092285156,0.9716797,0.1928711,-0.34020996,-0.17340088,0.30413818,215 
7.6293945,0.45776367,-8.331299,0.091552734,0.96606445,0.1953125,-0.34350586,-0.17449951,0.30303955,216 
8.529663,1.2054443,-8.377075,0.09008789,0.9609375,0.19750977,-0.34350586,-0.17449951,0.30303955,217 
10.757446,1.6479492,-9.658813,0.09008789,0.9589844,0.2006836,-0.34240723,-0.17559814,0.3012085,218 
12.771606,1.739502,-11.047363,0.092285156,0.95996094,0.2055664,-0.34240723,-0.17559814,0.3012085,219 
14.251709,1.3427734,-12.6953125,0.09814453,0.96191406,0.21142578,-0.34240723,-0.17559814,0.3012085,220 
15.136719,1.2512207,-14.389038,0.103515625,0.9658203,0.21557617,-0.3446045,-0.17633057,0.29974365,221 
16.281128,1.739502,-14.923096,0.111328125,0.9707031,0.21801758,-0.3446045,-0.17633057,0.29974365,222 
18.1427,0.8239746,-15.579224,0.119140625,0.97753906,0.22045898,-0.34313965,-0.17706299,0.2979126,223 
18.875122,0.33569336,-15.335083,0.125,0.9802246,0.22485352,-0.34313965,-0.17706299,0.2979126,224 
13.397217,-0.8544922,-16.63208,0.12866211,0.9616699,0.23876953,-0.34643555,-0.17633057,0.30047607,226 
11.581421,0.19836426,-17.990112,0.12402344,0.9597168,0.24023438,-0.34643555,-0.17633057,0.30047607,227 
10.482788,0.6713867,-20.843506,0.12963867,0.96362305,0.23706055,-0.34387207,-0.17559814,0.29974365,228 
9.063721,0.076293945,-22.003174,0.13549805,0.96362305,0.23266602,-0.34387207,-0.17559814,0.29974365,229 
10.009766,0.091552734,-21.865845,0.14111328,0.9641113,0.22924805,-0.34387207,-0.17559814,0.29974365,230 
10.543823,0.030517578,-22.93396,0.14550781,0.96484375,0.22753906,-0.34570312,-0.17633057,0.29974365,231 
10.864258,-0.38146973,-22.93396,0.14794922,0.9609375,0.22509766,-0.34570312,-0.17633057,0.29974365,232 
10.818481,-0.8087158,-21.987915,0.14697266,0.9536133,0.22314453,-0.34680176,-0.17669678,0.29864502,233 
11.505127,-0.869751,-21.194458,0.14477539,0.9436035,0.22314453,-0.34680176,-0.17669678,0.29864502,234 
12.130737,-1.2207031,-21.575928,0.1418457,0.93066406,0.22314453,-0.34680176,-0.17669678,0.29864502,235 
12.435913,-0.79345703,-22.521973,0.14038086,0.92163086,0.22485352,-0.35266113,-0.17449951,0.2949829,236 
13.000488,-0.5340576,-23.635864,0.14038086,0.91625977,0.2265625,-0.35266113,-0.17449951,0.2949829,237 
12.60376,-1.0528564,-25.878906,0.14208984,0.9152832,0.22802734,-0.35559082,-0.1774292,0.28985596,238 
11.459351,-0.9765625,-27.160645,0.14672852,0.91796875,0.22631836,-0.35559082,-0.1774292,0.28985596,239 
10.864258,-1.876831,-28.503418,0.15283203,0.92529297,0.2253418,-0.35559082,-0.1774292,0.28985596,240 
9.82666,-2.2583008,-29.556274,0.15991211,0.9404297,0.22216797,-0.3544922,-0.17962646,0.29864502,241 
8.468628,-2.8839111,-28.274536,0.16479492,0.953125,0.21948242,-0.3544922,-0.17962646,0.29864502,242 
10.314941,-3.8604736,-25.436401,0.16381836,0.96118164,0.21679688,-0.35266113,-0.17669678,0.29681396,243 
12.954712,-3.829956,-22.766113,0.15942383,0.9641113,0.21826172,-0.35266113,-0.17669678,0.29681396,244 
13.061523,-7.6446533,-20.858765,0.15405273,0.95874023,0.22290039,-0.35266113,-0.17669678,0.29681396,245 
13.35144,-3.2196045,-19.77539,0.14990234,0.9536133,0.2290039,-0.35961914,-0.17706299,0.29571533,246 
13.931274,-2.7160645,-18.936157,0.1472168,0.9511719,0.23413086,-0.35961914,-0.17706299,0.29571533,247 
14.541626,-1.739502,-18.310547,0.14550781,0.9494629,0.23779297,-0.36035156,-0.17559814,0.29241943,248 
15.518188,-1.2207031,-17.01355,0.14624023,0.95214844,0.24145508,-0.36035156,-0.17559814,0.29241943,249 
16.967773,-1.0528564,-15.640259,0.14770508,0.9567871,0.24584961,-0.36035156,-0.17559814,0.29241943,250 
16.998291,-1.7852783,-14.312744,0.15039062,0.96069336,0.25048828,-0.36547852,-0.17889404,0.291687,251 
16.342163,-1.4801025,-13.61084,0.15014648,0.9609375,0.25463867,-0.36547852,-0.17889404,0.291687,252 
12.649536,-1.0223389,-14.953613,0.1484375,0.95581055,0.2614746,-0.36035156,-0.18035889,0.28619385,253 
9.567261,0.77819824,-15.060425,0.14355469,0.9458008,0.26611328,-0.36035156,-0.18035889,0.28619385,254 
8.926392,3.6010742,-17.63916,0.13891602,0.95166016,0.26342773,-0.36035156,-0.18035889,0.28619385,255 
11.932373,4.272461,-19.042969,0.14379883,0.9614258,0.25878906,-0.36254883,-0.17633057,0.28582764,0 
11.993408,4.91333,-18.997192,0.15063477,0.9694824,0.2590332,-0.36254883,-0.17633057,0.28582764,1 
19.241333,4.6691895,-18.920898,0.15991211,0.96972656,0.26342773,-0.36547852,-0.1774292,0.28253174,2 
17.105103,4.79126,-18.28003,0.16552734,0.9572754,0.27490234,-0.36547852,-0.1774292,0.28253174,3 
15.50293,6.011963,-17.242432,0.1652832,0.953125,0.27807617,-0.36547852,-0.1774292,0.28253174,4 
14.160156,6.1187744,-15.472412,0.16845703,0.9536133,0.27490234,-0.3651123,-0.17852783,0.2850952,5 
12.313843,6.378174,-13.595581,0.17285156,0.9477539,0.2734375,-0.3651123,-0.17852783,0.2850952,6 
11.199951,6.591797,-12.573242,0.1772461,0.94189453,0.27197266,-0.3618164,-0.17962646,0.2843628,7 
10.772705,6.668091,-11.383057,0.18139648,0.9394531,0.2722168,-0.3618164,-0.17962646,0.2843628,8 
10.406494,6.1035156,-9.765625,0.18530273,0.9355469,0.2722168,-0.3618164,-0.17962646,0.2843628,9 
10.238647,5.7373047,-8.407593,0.125,0.9291992,0.2722168,-0.36730957,-0.17596436,0.284729,10 
8.850098,5.6762695,-9.048462,0.19042969,0.9230957,0.27319336,-0.36730957,-0.17596436,0.284729,11 
7.080078,5.340576,-9.246826,0.19384766,0.91845703,0.27392578,-0.36767578,-0.1774292,0.28179932,12 
6.2713623,4.760742,-10.070801,0.19702148,0.9189453,0.27392578,-0.36767578,-0.1774292,0.28179932,13 
5.5236816,3.9978027,-10.482788,0.2006836,0.92089844,0.2734375,-0.36767578,-0.1774292,0.28179932,14 
3.9978027,3.5858154,-10.055542,0.2043457,0.9223633,0.27197266,-0.36621094,-0.17669678,0.28289795,15 
2.9754639,1.8157959,-9.414673,0.20751953,0.92285156,0.2705078,-0.36621094,-0.17669678,0.28289795,16 
1.4038086,0.7324219,-8.514404,0.20776367,0.92089844,0.2680664,-0.36437988,-0.17999268,0.284729,17 
0.74768066,-0.64086914,-7.5683594,0.20605469,0.9169922,0.26538086,-0.36437988,-0.17999268,0.284729,18 
-0.79345703,-1.159668,-6.668091,0.20288086,0.91503906,0.26391602,-0.36437988,-0.17999268,0.284729,19 
-3.1585693,-1.5869141,-6.225586,0.2019043,0.9152832,0.26367188,-0.3713379,-0.17633057,0.28326416,20 
-6.1798096,-2.670288,-5.554199,0.2006836,0.9189453,0.26416016,-0.3713379,-0.17633057,0.28326416,21 
-9.094238,-3.5095215,-4.776001,0.19946289,0.9250488,0.26416016,-0.37023926,-0.17852783,0.28289795,22 
-12.039185,-4.2266846,-3.5705566,0.19677734,0.93408203,0.2626953,-0.37023926,-0.17852783,0.28289795,23 
-12.8479,-4.6081543,-2.1514893,0.19213867,0.94311523,0.2607422,-0.37023926,-0.17852783,0.28289795,24 
-12.969971,-4.79126,0.0,0.18725586,0.9484863,0.25708008,-0.37316895,-0.17706299,0.28546143,25 
-12.756348,-4.6691895,0.5187988,0.18261719,0.9494629,0.25317383,-0.37316895,-0.17706299,0.28546143,26 
-11.825562,-4.348755,1.2512207,0.17651367,0.9477539,0.24926758,-0.36730957,-0.1807251,0.28326416,27 
-11.062622,-3.9978027,1.6326904,0.17260742,0.9465332,0.24658203,-0.36730957,-0.1807251,0.28326416,28 
-7.217407,-3.3416748,2.5177002,0.16455078,0.9411621,0.24438477,-0.3684082,-0.17706299,0.28399658,30 
-5.050659,-2.3345947,2.3651123,0.16088867,0.9428711,0.24584961,-0.3684082,-0.17706299,0.28399658,31 
-2.7313232,-1.8615723,1.9836426,0.15844727,0.94799805,0.24707031,-0.368042,-0.17816162,0.2876587,32 
-0.79345703,-1.6937256,1.9378662,0.1550293,0.95288086,0.24829102,-0.368042,-0.17816162,0.2876587,33 
0.16784668,-0.76293945,0.8544922,0.15112305,0.9555664,0.25097656,-0.368042,-0.17816162,0.2876587,34 
0.12207031,-0.289917,0.6561279,0.14819336,0.9560547,0.25341797,-0.3717041,-0.18182373,0.2876587,35 
-0.22888184,0.30517578,0.4272461,0.14575195,0.9560547,0.2541504,-0.3717041,-0.18182373,0.2876587,36 
-0.64086914,1.2359619,-0.4119873,0.14453125,0.9560547,0.25317383,-0.36621094,-0.18035889,0.28948975,37 
-0.7324219,3.2196045,-1.2054443,0.14526367,0.9562988,0.25073242,-0.36621094,-0.18035889,0.28948975,38 
0.33569336,4.79126,-1.7852783,0.1484375,0.9597168,0.24804688,-0.36621094,-0.18035889,0.28948975,39 
2.2735596,5.6610107,-1.6479492,0.15307617,0.9616699,0.24633789,-0.37097168,-0.18109131,0.28692627,40 
5.584717,6.790161,-2.2888184,0.15966797,0.9658203,0.24731445,-0.37097168,-0.18109131,0.28692627,41 
8.270264,7.019043,-1.0223389,0.16479492,0.9641113,0.25024414,-0.36914062,-0.17926025,0.28948975,42 
9.658813,7.385254,0.0,0.16723633,0.9614258,0.25268555,-0.36914062,-0.17926025,0.28948975,43 
10.879517,8.575439,0.030517578,0.16870117,0.9580078,0.25561523,-0.36914062,-0.17926025,0.28948975,44 
11.734009,9.58252,-0.61035156,0.1706543,0.95581055,0.25927734,-0.3684082,-0.17852783,0.28692627,45 
11.291504,9.521484,-0.6713867,0.171875,0.95532227,0.2631836,-0.3684082,-0.17852783,0.28692627,46 
11.520386,9.994507,-1.5869141,0.1743164,0.9550781,0.26733398,-0.36401367,-0.18218994,0.2883911,47 
10.818481,9.82666,-2.4108887,0.17797852,0.9550781,0.27026367,-0.36401367,-0.18218994,0.2883911,48 
9.811401,9.887695,-3.7994385,0.18041992,0.9519043,0.27197266,-0.36401367,-0.18218994,0.2883911,49 
8.468628,9.750366,-4.4403076,0.18261719,0.94555664,0.27270508,-0.36767578,-0.18292236,0.284729,50 
7.6141357,10.375977,-5.264282,0.18383789,0.9379883,0.27172852,-0.36767578,-0.18292236,0.284729,51 
7.736206,9.796143,-6.6375732,0.18652344,0.93237305,0.27124023,-0.36950684,-0.18218994,0.28546143,52 
8.31604,9.979248,-7.5683594,0.19067383,0.9284668,0.27172852,-0.36950684,-0.18218994,0.28546143,53 
8.7890625,8.911133,-8.43811,0.1940918,0.9260254,0.27392578,-0.36950684,-0.18218994,0.28546143,54 
8.453369,8.026123,-8.911133,0.19604492,0.9248047,0.27563477,-0.37023926,-0.18109131,0.28216553,55 
7.4157715,7.965088,-8.69751,0.19750977,0.92456055,0.27734375,-0.37023926,-0.18109131,0.28216553,56 
5.3253174,7.507324,-8.422852,0.19824219,0.9250488,0.27783203,-0.36730957,-0.18218994,0.28692627,57 
3.7994385,7.8125,-8.102417,0.1977539,0.92749023,0.27392578,-0.36730957,-0.18218994,0.28692627,58 
6.0272217,6.9732666,-7.019043,0.19848633,0.93115234,0.26708984,-0.36730957,-0.18218994,0.28692627,59 
12.786865,5.3253174,-3.9978027,0.20336914,0.9338379,0.25317383,-0.3687744,-0.18182373,0.28363037,60 
20.889282,10.025024,-17.227173,0.2109375,0.9511719,0.23461914,-0.3687744,-0.18182373,0.28363037,61 
31.066895,13.778687,-32.318115,0.2319336,0.98828125,0.20654297,-0.3713379,-0.18292236,0.28033447,62 
41.030884,21.987915,-32.791138,0.23486328,1.0581055,0.23291016,-0.3713379,-0.18292236,0.28033447,63 
62.210083,34.88159,-34.42383,0.20629883,1.1333008,0.2758789,-0.3713379,-0.18292236,0.28033447,64 
147.04895,61.00464,-58.273315,0.13964844,1.1877441,0.2939453,-0.375,-0.17852783,0.2748413,66 
203.67432,82.229614,-60.98938,0.1027832,1.3400879,0.23754883,-0.37646484,-0.17962646,0.2675171,67 
258.94165,99.57886,-58.776855,0.087890625,1.4018555,0.16455078,-0.37646484,-0.17962646,0.2675171,68 
314.14795,121.9635,-55.43518,0.07006836,1.3825684,0.1105957,-0.37646484,-0.17962646,0.2675171,69 
358.87146,130.43213,-58.441162,0.06567383,1.2932129,0.092041016,-0.38562012,-0.18182373,0.24407959,70 
317.76428,99.07532,-75.10376,0.08666992,0.8720703,0.27514648,-0.38928223,-0.17486572,0.21734619,72 
266.3269,87.11243,-78.24707,0.10546875,0.65356445,0.3779297,-0.38928223,-0.17486572,0.21734619,73 
205.16968,77.95715,-74.93591,0.14794922,0.4885254,0.46679688,-0.38928223,-0.17486572,0.21734619,74 
155.9906,68.92395,-75.0885,0.19360352,0.4230957,0.53149414,-0.39660645,-0.17047119,0.19976807,75 
134.90295,64.39209,-83.1604,0.22021484,0.44262695,0.5690918,-0.39660645,-0.17047119,0.19976807,76 
138.5498,66.223145,-83.87756,0.24707031,0.5161133,0.5637207,-0.3984375,-0.16644287,0.18878174,77 
145.62988,66.43677,-80.03235,0.28759766,0.59814453,0.5383301,-0.3984375,-0.16644287,0.18878174,78 
149.56665,63.52234,-78.14026,0.33862305,0.65649414,0.51708984,-0.3984375,-0.16644287,0.18878174,79 
158.67615,59.47876,-73.04382,0.36206055,0.6850586,0.5048828,-0.41271973,-0.1609497,0.17193604,80 
159.27124,61.080933,-68.92395,0.36621094,0.67993164,0.49951172,-0.41271973,-0.1609497,0.17193604,81 
154.19006,59.99756,-68.90869,0.38305664,0.68066406,0.49926758,-0.41931152,-0.15838623,0.16607666,82 
151.51978,58.34961,-63.11035,0.39648438,0.6791992,0.52124023,-0.41931152,-0.15838623,0.16607666,83 
143.44788,59.661865,-58.09021,0.39916992,0.65844727,0.5437012,-0.41931152,-0.15838623,0.16607666,84 
132.46155,56.06079,-56.396484,0.40405273,0.65405273,0.5632324,-0.42297363,-0.15472412,0.14996338,85 
126.15967,51.071167,-55.236816,0.41796875,0.6591797,0.57958984,-0.42297363,-0.15472412,0.14996338,86 
122.14661,49.560547,-54.04663,0.43017578,0.65405273,0.57714844,-0.42736816,-0.15179443,0.14263916,87 
120.529175,46.066284,-51.42212,0.44604492,0.64160156,0.5732422,-0.42736816,-0.15179443,0.14263916,88 
117.06543,41.763306,-50.735474,0.4494629,0.6196289,0.5739746,-0.42736816,-0.15179443,0.14263916,89 
110.77881,45.578003,-46.23413,0.42578125,0.5895996,0.58935547,-0.43359375,-0.14300537,0.13275146,90 
106.44531,48.065186,-45.898438,0.4008789,0.5739746,0.6027832,-0.43359375,-0.14300537,0.13275146,91 
97.53418,50.109863,-46.14258,0.3828125,0.55908203,0.62768555,-0.43945312,-0.14190674,0.13311768,92 
89.82849,51.04065,-46.63086,0.3803711,0.5563965,0.6401367,-0.43945312,-0.14190674,0.13311768,93 
90.270996,51.05591,-47.348022,0.39379883,0.57373047,0.6359863,-0.43945312,-0.14190674,0.13311768,94 
96.86279,54.382324,-46.24939,0.41796875,0.6022949,0.62524414,-0.44348145,-0.13641357,0.12506104,95 
97.03064,49.63684,-44.815063,0.43920898,0.61206055,0.6179199,-0.44348145,-0.13641357,0.12506104,96 
96.67969,45.547485,-45.410156,0.46118164,0.62060547,0.60375977,-0.44714355,-0.13238525,0.11663818,97 
105.97229,45.913696,-35.842896,0.46264648,0.59472656,0.59155273,-0.44714355,-0.13238525,0.11663818,98 
105.911255,49.102783,-34.317017,0.45043945,0.5517578,0.576416,-0.44714355,-0.13238525,0.11663818,99 
92.51404,48.01941,-37.872314,0.4465332,0.5070801,0.57250977,-0.45483398,-0.12982178,0.113342285,100 
85.89172,47.6532,-33.554077,0.4580078,0.45410156,0.5900879,-0.45483398,-0.12982178,0.113342285,101 
79.17786,45.62378,-33.554077,0.47045898,0.47387695,0.6159668,-0.45336914,-0.11956787,0.11077881,102 
72.55554,40.786743,-32.928467,0.49926758,0.49121094,0.6567383,-0.45336914,-0.11956787,0.11077881,103 
62.789917,37.261963,-28.198242,0.51220703,0.4885254,0.70947266,-0.45336914,-0.11956787,0.11077881,104 
48.294067,31.051636,-25.299072,0.51782227,0.47680664,0.6899414,-0.45483398,-0.117004395,0.10015869,105 
37.597656,27.374268,-23.391724,0.52197266,0.45922852,0.7717285,-0.45483398,-0.117004395,0.10015869,106 
27.770996,24.368286,-24.047852,0.5280762,0.46044922,0.7766113,-0.45959473,-0.11553955,0.09979248,107 
21.774292,21.255493,-23.162842,0.53027344,0.44750977,0.7729492,-0.45959473,-0.11553955,0.09979248,108 
13.717651,20.523071,-24.18518,0.5288086,0.44262695,0.76123047,-0.45959473,-0.11553955,0.09979248,109 
8.453369,21.133423,-25.131226,0.5324707,0.46191406,0.7453613,-0.4588623,-0.113342285,0.101257324,110 
8.361816,20.462036,-23.101807,0.54833984,0.4765625,0.72802734,-0.4588623,-0.113342285,0.101257324,111 
1.1138916,20.431519,-21.66748,0.5473633,0.45751953,0.71850586,-0.46655273,-0.113342285,0.101623535,112 
-7.675171,20.126343,-21.514893,0.53564453,0.44970703,0.71850586,-0.46655273,-0.113342285,0.101623535,113 
-10.345459,18.844604,-20.446777,0.52490234,0.46875,0.71606445,-0.46655273,-0.113342285,0.097961426,114 
-11.779785,19.500732,-18.737793,0.5148926,0.4892578,0.7109375,-0.46618652,-0.113342285,0.097961426,115 
-10.528564,20.599365,-19.729614,0.50146484,0.51049805,0.7006836,-0.46618652,-0.113342285,0.097961426,116 
-7.4157715,20.690918,-19.699097,0.49487305,0.5288086,0.6843262,-0.4691162,-0.11224365,0.09979248,117 
-1.0375977,18.661499,-20.767212,0.5019531,0.53027344,0.66259766,-0.4691162,-0.11224365,0.09979248,118 
-0.64086914,17.608643,-20.935059,0.5058594,0.5214844,0.6425781,-0.4691162,-0.11224365,0.09979248,119 
2.5177002,15.380859,-20.03479,0.5209961,0.52563477,0.6335449,-0.46984863,-0.11444092,0.10015869,120 
5.41687,15.029907,-17.929077,0.5324707,0.5253906,0.63549805,-0.46984863,-0.11444092,0.10015869,121 
1.1444092,16.723633,-17.044067,0.53149414,0.5097656,0.6394043,-0.47058105,-0.11151123,0.101623535,122 
-0.5493164,19.317627,-15.136719,0.5319824,0.5090332,0.64453125,-0.47058105,-0.11151123,0.101623535,123 
2.1514893,14.343262,-14.312744,0.53515625,0.51123047,0.6435547,-0.47058105,-0.11151123,0.101623535,124 
5.9509277,14.11438,-15.075684,0.53125,0.51782227,0.642334,-0.46984863,-0.109313965,0.09906006,125 
9.872437,14.61792,-14.984131,0.5288086,0.52124023,0.6472168,-0.46984863,-0.109313965,0.09906006,126 
15.060425,15.960693,-15.701294,0.5275879,0.51782227,0.65649414,-0.47058105,-0.10858154,0.101623535,127 
12.283325,18.78357,-18.676758,0.5266113,0.501709,0.65771484,-0.47058105,-0.10858154,0.101623535,128 
28.930664,27.069092,-22.460938,0.5241699,0.52783203,0.6645508,-0.47680664,-0.10858154,0.1005249,132 
35.476685,29.632568,-22.67456,0.5185547,0.546875,0.6760254,-0.47680664,-0.10858154,0.1005249,133 
45.959473,32.302856,-23.635864,0.5600586,0.54907227,0.6887207,-0.47680664,-0.10858154,0.1005249,134 
65.91797,40.08484,-26.71814,0.4724121,0.5827637,0.7001953,-0.47460938,-0.10748291,0.09576416,135 
80.53589,44.189453,-28.427124,0.4675293,0.57421875,0.7011719,-0.47460938,-0.10748291,0.09576416,136 
81.29883,51.315308,-25.726318,0.4711914,0.57543945,0.71655273,-0.48046875,-0.10418701,0.09503174,137 
100.234985,58.34961,-21.621704,0.48388672,0.6176758,0.73168945,-0.48046875,-0.10418701,0.09503174,138 
93.62793,64.315796,-17.959595,0.50805664,0.5812988,0.73876953,-0.48046875,-0.10418701,0.09503174,139 
71.640015,71.92993,-12.969971,0.52319336,0.52368164,0.7441406,-0.48083496,-0.1005249,0.08807373,140 
64.66675,76.18713,-7.3242188,0.5234375,0.5148926,0.7414551,-0.48083496,-0.1005249,0.08807373,141 
59.09729,72.402954,-9.552002,0.5383301,0.48657227,0.7351074,-0.4885254,-0.09649658,0.09320068,142 
50.52185,80.15442,-2.6550293,0.5148926,0.45922852,0.72094727,-0.4885254,-0.09649658,0.09320068,143 
26.611328,87.44812,-4.6691895,0.4880371,0.4519043,0.7145996,-0.4885254,-0.09649658,0.08917236,144 
13.198853,95.90149,-3.5552979,0.48632812,0.46655273,0.7126465,-0.48779297,-0.09246826,0.08917236,145 
5.783081,113.87634,1.6937256,0.54589844,0.4404297,0.6647949,-0.4925537,-0.09283447,0.08843994,147 
-10.726929,116.45508,0.2593994,0.56762695,0.36743164,0.64697266,-0.4925537,-0.09283447,0.08843994,148 
-48.812866,116.54663,-6.378174,0.5769043,0.16723633,0.64501953,-0.4925537,-0.09283447,0.08843994,149 
-73.028564,117.126465,-16.586304,0.55615234,0.10546875,0.65063477,-0.49621582,-0.09466553,0.09503174,150 
-80.703735,118.95752,-26.992798,0.5461426,0.111328125,0.6464844,-0.49621582,-0.09466553,0.09503174,151 
-72.647095,119.73572,-31.326294,0.56884766,0.15673828,0.63061523,-0.5050049,-0.097595215,0.1005249,152 
-50.964355,118.83545,-40.57312,0.6022949,0.22314453,0.6154785,-0.5050049,-0.097595215,0.1005249,153 
-42.73987,116.53137,-42.251587,0.65283203,0.2590332,0.59643555,-0.5050049,-0.097595215,0.10455322,154 
-36.43799,115.38696,-41.59546,0.7001953,0.29492188,0.58081055,-0.5115967,-0.10015869,0.10455322,155 
-38.5437,112.51831,-40.496826,0.7338867,0.2861328,0.5727539,-0.5115967,-0.10015869,0.10455322,156 
-54.244995,109.16138,-39.79492,0.7529297,0.24584961,0.5847168,-0.52075195,-0.09942627,0.117004395,157 
-65.61279,105.49927,-38.95569,0.7668457,0.2512207,0.59472656,-0.52075195,-0.09942627,0.117004395,158 
-64.315796,98.602295,-35.41565,0.7895508,0.26708984,0.5913086,-0.52697754,-0.1005249,0.11993408,159 
-61.157227,94.36035,-32.180786,0.80737305,0.27661133,0.5656738,-0.52697754,-0.1005249,0.11993408,160 
-53.17688,86.517334,-29.464722,0.83447266,0.29492188,0.52368164,-0.52697754,-0.1005249,0.11993408,161 
-44.631958,78.26233,-23.483276,0.85595703,0.32055664,0.4663086,-0.53466797,-0.105651855,0.12872314,162 
-32.89795,74.35608,-19.256592,0.8664551,0.36791992,0.4152832,-0.53466797,-0.105651855,0.12872314,163 
-21.316528,71.18225,-11.566162,0.87768555,0.42333984,0.36938477,-0.53466797,-0.10601807,0.13201904,164 
-9.109497,68.34412,3.8452148,0.88793945,0.47607422,0.3310547,-0.53466797,-0.10601807,0.13201904,165 
3.692627,59.9823,12.191772,0.888916,0.49072266,0.30908203,-0.53466797,-0.10601807,0.13201904,166 
14.312744,48.919678,18.76831,0.8659668,0.48876953,0.28857422,-0.5394287,-0.10784912,0.13531494,167 
33.584595,39.474487,24.368286,0.84887695,0.5073242,0.27148438,-0.5394287,-0.10784912,0.13531494,168 
44.647217,34.606934,28.244019,0.83374023,0.5144043,0.26245117,-0.5394287,-0.10638428,0.13128662,169 
44.830322,30.136108,34.13391,0.81933594,0.5031738,0.27246094,-0.5361328,-0.10638428,0.13128662,170 
22.125244,29.129028,40.19165,0.8041992,0.4597168,0.29736328,-0.5361328,-0.10638428,0.13128662,171 
17.288208,26.397705,44.47937,0.8010254,0.4765625,0.31811523,-0.5390625,-0.10675049,0.1305542,172 
11.672974,12.10022,42.663574,0.7727051,0.44799805,0.37548828,-0.5354004,-0.10638428,0.12359619,174 
4.989624,9.109497,36.987305,0.7307129,0.49682617,0.40795898,-0.5354004,-0.10638428,0.12359619,175 
-9.44519,8.94165,31.814575,0.6813965,0.4182129,0.45214844,-0.5354004,-0.10638428,0.12359619,176 
-23.361206,5.3253174,25.604248,0.6586914,0.39648438,0.5031738,-0.5350342,-0.11114502,0.13458252,177 
-38.635254,0.869751,22.521973,0.65649414,0.38745117,0.5522461,-0.5350342,-0.11114502,0.13458252,178 
-45.333862,-5.3710938,19.561768,0.6694336,0.4050293,0.5810547,-0.5350342,-0.11077881,0.12945557,179 
-52.56653,-8.972168,14.465332,0.68310547,0.4260254,0.59155273,-0.5328369,-0.11077881,0.12945557,180 
-65.61279,-12.023926,9.231567,0.69677734,0.41748047,0.5847168,-0.5328369,-0.11077881,0.12945557,181 
-80.947876,-14.785767,2.7008057,0.70532227,0.41137695,0.56518555,-0.53393555,-0.11627197,0.13421631,182 
-91.552734,-18.692017,-4.8675537,0.704834,0.4255371,0.5432129,-0.53393555,-0.11627197,0.13421631,183 
-97.94617,-20.15686,-9.20105,0.70288086,0.4506836,0.51782227,-0.53393555,-0.12213135,0.137146,184 
-96.206665,-20.339966,-10.498047,0.70947266,0.4819336,0.484375,-0.52734375,-0.12213135,0.137146,185 
-96.206665,-18.203735,-11.245728,0.7175293,0.47729492,0.4519043,-0.52734375,-0.12213135,0.137146,186 
-96.725464,-19.195557,-12.207031,0.7290039,0.4650879,0.42333984,-0.5313721,-0.12542725,0.14593506,187 
-99.19739,-13.214111,-14.755249,0.7145996,0.43676758,0.39697266,-0.5313721,-0.12542725,0.14593506,188 
-96.13037,-6.6833496,-20.6604,0.7084961,0.4128418,0.3569336,-0.529541,-0.12689209,0.1473999,189 
-95.65735,-6.0272217,-25.07019,0.7180176,0.36816406,0.33569336,-0.529541,-0.12689209,0.1473999,190 
-97.19849,-7.385254,-29.724121,0.717041,0.33984375,0.32128906,-0.529541,-0.12689209,0.1473999,191 
-84.228516,-14.480591,-32.180786,0.72314453,0.37060547,0.29345703,-0.53100586,-0.13092041,0.15985107,192 
-71.67053,-16.189575,-33.355713,0.72094727,0.40576172,0.26733398,-0.53100586,-0.13092041,0.15985107,193 
-58.776855,-14.907837,-32.791138,0.71606445,0.44458008,0.24511719,-0.5313721,-0.13531494,0.15985107,194 
-39.3219,-13.961792,-33.615112,0.7062988,0.47827148,0.2265625,-0.5313721,-0.13531494,0.15985107,195 
-26.443481,-11.795044,-35.29358,0.69799805,0.4909668,0.2241211,-0.5313721,-0.13531494,0.15985107,196 
-11.505127,-10.131836,-35.598755,0.70092773,0.50219727,0.21875,-0.5354004,-0.13311768,0.1638794,197 
5.41687,-9.277344,-32.27234,0.7109375,0.5456543,0.1953125,-0.5354004,-0.13311768,0.1638794,198 
40.96985,-8.422852,-25.344849,0.72558594,0.6052246,0.14892578,-0.5383301,-0.12872314,0.15911865,199 
79.711914,-6.80542,-17.501831,0.7211914,0.6477051,0.11425781,-0.5383301,-0.12872314,0.15911865,200 
109.054565,-2.0446777,-9.20105,0.70458984,0.6713867,0.10961914,-0.5383301,-0.12872314,0.15911865,201 
132.32422,2.9449463,0.90026855,0.689209,0.6779785,0.12963867,-0.53686523,-0.124694824,0.15545654,202 
156.15845,5.1879883,16.693115,0.67944336,0.6142578,0.24780273,-0.5386963,-0.121032715,0.14483643,204 
157.547,4.043579,22.415161,0.6906738,0.5546875,0.3034668,-0.5386963,-0.121032715,0.14483643,205 
155.15137,3.9978027,25.283813,0.69433594,0.50146484,0.36987305,-0.5386963,-0.121032715,0.14483643,206 
153.53394,-6.6223145,27.20642,0.69921875,0.4560547,0.46069336,-0.5357666,-0.11517334,0.13897705,207 
143.81409,-13.809204,26.550293,0.7050781,0.43359375,0.55615234,-0.5357666,-0.11517334,0.13897705,208 
133.75854,-23.254395,27.22168,0.71606445,0.41479492,0.63305664,-0.5291748,-0.11114502,0.1272583,209 
124.37439,-23.330688,28.564453,0.70751953,0.4074707,0.6689453,-0.5291748,-0.11114502,0.1272583,210 
124.75586,-24.291992,30.944824,0.71484375,0.4309082,0.6660156,-0.5291748,-0.11114502,0.1272583,211 
123.90137,-21.1792,30.639648,0.70874023,0.42333984,0.6594238,-0.5291748,-0.1071167,0.12030029,212 
118.45398,-17.364502,29.61731,0.69506836,0.41625977,0.65527344,-0.5291748,-0.1071167,0.12030029,213 
114.364624,-13.35144,28.900146,0.6855469,0.4008789,0.6611328,-0.5262451,-0.09869385,0.11187744,214 
106.170654,-10.040283,26.382446,0.68652344,0.37963867,0.6730957,-0.5262451,-0.09869385,0.11187744,215 
97.579956,-5.4626465,23.834229,0.6833496,0.37036133,0.6743164,-0.5262451,-0.09869385,0.11187744,216 
96.69495,-2.7008057,20.324707,0.6779785,0.3623047,0.67041016,-0.5299072,-0.10015869,0.10015869,217 
89.98108,0.21362305,16.75415,0.67333984,0.34277344,0.6699219,-0.5299072,-0.10015869,0.10015869,218 
83.03833,2.2735596,13.320923,0.67163086,0.32617188,0.6748047,-0.5258789,-0.09576416,0.09942627,219 
76.75171,3.189087,10.025024,0.6723633,0.32592773,0.67529297,-0.5258789,-0.09576416,0.09942627,220 
70.44983,5.004883,7.7209473,0.6816406,0.32885742,0.6640625,-0.5258789,-0.09576416,0.09942627,221 
68.96973,8.7890625,6.6986084,0.6879883,0.3371582,0.640625,-0.5266113,-0.093933105,0.09979248,222 
65.67383,11.169434,5.2337646,0.69628906,0.33544922,0.62597656,-0.5266113,-0.093933105,0.09979248,223 
63.11035,11.886597,1.6784668,0.7089844,0.3503418,0.60131836,-0.5229492,-0.08917236,0.09906006,224 
62.301636,10.4522705,1.0375977,0.7145996,0.35717773,0.57910156,-0.5229492,-0.08917236,0.09906006,225 
58.929443,9.506226,2.6245117,0.717041,0.3635254,0.5656738,-0.5229492,-0.08917236,0.09906006,226 
55.648804,6.378174,7.2784424,0.72875977,0.38354492,0.5415039,-0.5247803,-0.08917236,0.09429932,228 
48.01941,5.1727295,10.986328,0.74072266,0.38012695,0.5324707,-0.5233154,-0.08294678,0.08660889,229 
45.333862,1.1749268,15.335083,0.76220703,0.38793945,0.5192871,-0.5233154,-0.08294678,0.08660889,230 
39.93225,-7.369995,18.203735,0.7727051,0.37670898,0.51953125,-0.5233154,-0.08294678,0.08660889,231 
30.334473,-12.466431,19.729614,0.7766113,0.35766602,0.53271484,-0.52441406,-0.082214355,0.090270996,232 
20.446777,-19.454956,19.363403,0.77856445,0.34228516,0.5566406,-0.52441406,-0.082214355,0.090270996,233 
5.3253174,-28.640747,19.927979,0.77978516,0.32739258,0.5944824,-0.5222168,-0.081848145,0.08477783,234 
-12.252808,-35.125732,19.424438,0.78125,0.31713867,0.6401367,-0.5222168,-0.081848145,0.08477783,235 
-32.440186,-41.244507,19.485474,0.7780762,0.3034668,0.66748047,-0.5222168,-0.081848145,0.08477783,236 
-49.926758,-47.958374,18.26477,0.7792969,0.2861328,0.6816406,-0.5189209,-0.08111572,0.08734131,237 
-67.993164,-53.649902,18.051147,0.7883301,0.25317383,0.6850586,-0.5189209,-0.08111572,0.08734131,238 
-92.89551,-59.86023,18.4021,0.81030273,0.21484375,0.6882324,-0.5126953,-0.0836792,0.08514404,239 
-132.69043,-66.43677,24.383545,0.83569336,0.16552734,0.7060547,-0.5126953,-0.0836792,0.08514404,240 
-180.77087,-82.01599,31.61621,0.86621094,0.11621094,0.7294922,-0.5126953,-0.0836792,0.08514404,241 
-241.33301,-102.21863,42.19055,0.88623047,0.0637207,0.7585449,-0.51049805,-0.089538574,0.09173584,242 
-307.92236,-132.90405,50.91858,0.89575195,0.0234375,0.7836914,-0.51049805,-0.089538574,0.09173584,243 
-376.57166,-159.3628,67.32178,0.89746094,-0.0063476562,0.7717285,-0.49987793,-0.10638428,0.10675049,244 
-435.88257,-188.04932,82.58057,0.88256836,-0.021484375,0.70654297,-0.49987793,-0.10638428,0.10675049,245 
-496.39893,-210.95276,95.840454,0.84228516,-0.0009765625,0.6152344,-0.49987793,-0.10638428,0.10675049,246 
-500.0,-225.90637,108.76465,0.8132324,0.037597656,0.5,-0.49035645,-0.12872314,0.12872314,247 
-500.0,-241.08887,130.23376,0.81152344,0.06591797,0.3864746,-0.49035645,-0.12872314,0.12872314,248 
-500.0,-243.2251,157.0282,0.736084,0.15185547,0.24975586,-0.47131348,-0.1539917,0.16827393,249 
-500.0,-235.94666,171.98181,0.6516113,0.3017578,0.1628418,-0.47131348,-0.1539917,0.16827393,250 
-500.0,-223.9685,191.20789,0.5917969,0.39257812,0.038085938,-0.47131348,-0.1539917,0.16827393,251 
-497.19238,-197.14355,207.53479,0.51660156,0.5241699,-0.1171875,-0.45703125,-0.1675415,0.2111206,252 
-419.60144,-179.27551,215.60669,0.4267578,0.6538086,-0.28686523,-0.45703125,-0.1675415,0.2111206,253 
-325.77515,-163.97095,217.11731,0.36743164,0.69677734,-0.42626953,-0.4354248,-0.17816162,0.23638916,254 
-208.84705,-141.28113,213.68408,0.34350586,0.85668945,-0.5385742,-0.4354248,-0.17816162,0.23638916,255 
-107.58972,-128.00598,205.23071,0.33447266,0.91845703,-0.6333008,-0.4354248,-0.17816162,0.23638916,0 
-21.850586,-110.42786,200.943,0.29858398,0.907959,-0.6994629,-0.41711426,-0.184021,0.2477417,1 
39.0625,-87.34131,198.56262,0.25512695,0.8647461,-0.74121094,-0.41711426,-0.184021,0.2477417,2 
118.71338,-10.848999,181.30493,0.15283203,0.67871094,-0.6682129,-0.4013672,-0.17852783,0.24591064,5 
148.11707,12.634277,148.48328,0.12670898,0.5822754,-0.638916,-0.3881836,-0.17779541,0.23712158,6 
188.11035,46.00525,57.9834,0.12451172,0.24438477,-0.5046387,-0.37573242,-0.17449951,0.22357178,8 
213.974,42.053223,7.0343018,0.17358398,0.2109375,-0.3408203,-0.37573242,-0.17449951,0.22357178,9 
240.02075,16.296387,21.42334,0.22875977,0.3996582,0.02709961,-0.37573242,-0.17449951,0.22357178,10 
492.09595,-218.65845,34.01184,0.2175293,1.104248,1.3171387,-0.37902832,-0.1708374,0.20159912,11 
325.9735,-148.45276,80.50537,-0.22143555,1.8908691,2.3686523,-0.37902832,-0.1708374,0.20159912,12 
32.89795,-144.42444,41.96167,0.0068359375,1.3112793,2.7531738,-0.3720703,-0.1605835,0.17816162,13 
-139.5874,-178.26843,110.10742,0.125,1.2873535,2.6818848,-0.3720703,-0.1605835,0.17816162,14 
-208.57239,-165.1001,150.03967,-0.033935547,1.3793945,2.2785645,-0.3720703,-0.1605835,0.17816162,15 
-203.10974,-88.57727,122.84851,-0.24047852,1.3427734,1.7868652,-0.36254883,-0.1609497,0.19464111,16 
-183.62427,-49.75891,92.40723,-0.29052734,1.1848145,1.3127441,-0.36254883,-0.1609497,0.19464111,17 
-165.22217,-16.342163,82.595825,-0.2998047,1.0048828,1.043457,-0.35083008,-0.16607666,0.20892334,18 
-132.40051,26.107788,59.951782,-0.29956055,0.8774414,0.83325195,-0.35083008,-0.16607666,0.20892334,19 
-97.24426,61.12671,27.633667,-0.26123047,0.7961426,0.7397461,-0.35083008,-0.16607666,0.20892334,20 
-92.5293,82.6416,5.3100586,-0.1928711,0.7219238,0.59350586,-0.34753418,-0.1708374,0.2144165,21 
-131.97327,102.72217,-20.767212,-0.04638672,0.72265625,0.46850586,-0.34387207,-0.16973877,0.22650146,23 
-150.63477,104.09546,-17.425537,0.01953125,0.7854004,0.4020996,-0.34387207,-0.16973877,0.22650146,24 
-189.71252,109.46655,-5.1116943,0.09448242,0.8745117,0.22851562,-0.35009766,-0.17486572,0.23602295,26 
-193.89343,113.51013,-5.8898926,0.11816406,0.9069824,0.16210938,-0.35009766,-0.17486572,0.23602295,27 
-185.39429,115.92102,-4.8828125,0.14331055,0.9501953,0.10620117,-0.3515625,-0.17559814,0.2514038,28 
-163.49792,114.07471,0.9765625,0.17260742,1.0048828,0.0703125,-0.3515625,-0.17559814,0.2514038,29 
-136.73401,109.42078,6.8969727,0.20532227,1.057373,0.056640625,-0.3515625,-0.17559814,0.2514038,30 
-104.82788,100.3418,12.771606,0.234375,1.1015625,0.052001953,-0.3544922,-0.17962646,0.26531982,31 
-69.5343,89.29443,17.501831,0.2529297,1.1293945,0.052734375,-0.3544922,-0.17962646,0.26531982,32 
-19.866943,75.8667,19.851685,0.26733398,1.1386719,0.056152344,-0.35339355,-0.17852783,0.26678467,33 
24.261475,65.597534,21.972656,0.27197266,1.1088867,0.06665039,-0.35339355,-0.17852783,0.26678467,34 
61.203003,49.606323,25.619507,0.27783203,1.0422363,0.09814453,-0.35339355,-0.17852783,0.26678467,35 
76.96533,34.88159,31.311035,0.27246094,0.9746094,0.13793945,-0.35083008,-0.17999268,0.26202393,36 
78.49121,19.363403,37.002563,0.2590332,0.92529297,0.18847656,-0.35083008,-0.17999268,0.26202393,37 
67.13867,3.7231445,40.786743,0.2409668,0.8857422,0.24194336,-0.3482666,-0.17633057,0.2543335,38 
44.174194,-6.591797,40.95459,0.22509766,0.8527832,0.28051758,-0.3482666,-0.17633057,0.2543335,39 
16.494751,-18.356323,41.259766,0.21557617,0.8293457,0.3076172,-0.3482666,-0.17633057,0.2543335,40 
-10.1623535,-30.090332,41.900635,0.2121582,0.8195801,0.32104492,-0.34753418,-0.17852783,0.25030518,41 
-26.275635,-35.324097,42.19055,0.2121582,0.82373047,0.32202148,-0.34753418,-0.17852783,0.25030518,42 
-39.718628,-45.059204,43.640137,0.21069336,0.8371582,0.31567383,-0.34094238,-0.1741333,0.25323486,43 
-47.668457,-48.90442,43.167114,0.20678711,0.85546875,0.30517578,-0.34094238,-0.1741333,0.25323486,44 
-52.03247,-49.240112,41.885376,0.203125,0.8774414,0.29760742,-0.34094238,-0.1741333,0.25323486,45 
-56.243896,-49.072266,38.45215,0.19848633,0.89868164,0.29223633,-0.34020996,-0.17596436,0.25946045,46 
-59.753418,-35.095215,20.614624,0.16967773,0.954834,0.29003906,-0.33654785,-0.17486572,0.26715088,50 
-58.135986,-30.654907,18.310547,0.16381836,0.9577637,0.28344727,-0.3310547,-0.17706299,0.26898193,51 
-55.099487,-24.887085,14.49585,0.1574707,0.9577637,0.2746582,-0.3310547,-0.17706299,0.26898193,52 
-50.29297,-18.875122,10.83374,0.15014648,0.9572754,0.2631836,-0.32922363,-0.17376709,0.27850342,53 
-46.173096,-14.877319,7.1411133,0.14282227,0.95825195,0.25219727,-0.32922363,-0.17376709,0.27850342,54 
-40.96985,-10.08606,4.547119,0.13623047,0.9602051,0.24243164,-0.32922363,-0.17376709,0.27850342,55 
-35.598755,-6.713867,0.74768066,0.13061523,0.96313477,0.23242188,-0.32995605,-0.17816162,0.28033447,56 
-29.73938,-4.8980713,-1.449585,0.12402344,0.96533203,0.22460938,-0.32995605,-0.17816162,0.28033447,57 
-23.468018,-2.1972656,-5.279541,0.11791992,0.9680176,0.21875,-0.32885742,-0.17633057,0.28619385,58 
-17.288208,-1.2664795,-8.255005,0.11230469,0.97021484,0.21435547,-0.32885742,-0.17633057,0.28619385,59 
-12.390137,0.7171631,-10.650635,0.106933594,0.9719238,0.2121582,-0.32885742,-0.17633057,0.28619385,60 
-7.9193115,1.6021729,-14.175415,0.10498047,0.97314453,0.21289062,-0.33032227,-0.17449951,0.2843628,61 
-2.8076172,2.746582,-16.25061,0.103515625,0.9733887,0.21557617,-0.33032227,-0.17449951,0.2843628,62 
-1.3275146,3.8909912,-18.798828,0.103027344,0.97216797,0.21899414,-0.3310547,-0.17596436,0.28253174,63 
0.30517578,2.8839111,-20.996094,0.10473633,0.97143555,0.22387695,-0.3310547,-0.17596436,0.28253174,64 
1.6479492,0.9918213,-20.965576,0.107177734,0.96899414,0.23022461,-0.3310547,-0.17596436,0.28253174,65 
3.463745,-0.64086914,-20.15686,0.10986328,0.9694824,0.23779297,-0.3343506,-0.17706299,0.28289795,66 
6.9122314,-3.189087,-18.203735,0.11230469,0.9733887,0.24194336,-0.3343506,-0.17706299,0.28289795,67 
10.253906,-5.8288574,-15.625,0.11035156,0.9699707,0.24609375,-0.34020996,-0.17633057,0.28692627,68 
9.20105,-7.5683594,-15.319824,0.1081543,0.9538574,0.25195312,-0.34020996,-0.17633057,0.28692627,69 
5.554199,-10.7421875,-14.770508,0.10522461,0.93774414,0.25756836,-0.34020996,-0.17633057,0.28692627,70 
-0.61035156,-12.832642,-14.205933,0.103027344,0.9238281,0.26049805,-0.34020996,-0.17926025,0.27850342,71 
-4.760742,-15.319824,-12.466431,0.10107422,0.91625977,0.26123047,-0.34020996,-0.17926025,0.27850342,72 
-15.014648,-17.150879,-11.09314,0.1003418,0.9165039,0.25878906,-0.33728027,-0.17559814,0.2843628,73 
-19.241333,-20.111084,-8.2092285,0.099365234,0.9223633,0.25390625,-0.33728027,-0.17559814,0.2843628,74 
-21.377563,-22.827148,-4.3640137,0.09838867,0.93115234,0.25146484,-0.33728027,-0.17559814,0.2843628,75 
-24.291992,-24.490356,-0.38146973,0.09301758,0.9433594,0.2475586,-0.33874512,-0.1774292,0.28692627,76 
-25.909424,-23.712158,3.692627,0.084472656,0.96435547,0.24291992,-0.33874512,-0.1774292,0.28692627,77 
-25.970459,-22.68982,6.668091,0.076416016,0.9897461,0.23632812,-0.34020996,-0.17999268,0.28582764,78 
-26.382446,-20.584106,10.482788,0.06958008,1.0185547,0.22729492,-0.34020996,-0.17999268,0.28582764,79 
-26.550293,-8.94165,5.9509277,0.063964844,1.0424805,0.21240234,-0.34020996,-0.17999268,0.2850952,80 
-37.902832,22.17102,-26.855469,0.08935547,1.0734863,0.18676758,-0.33728027,-0.17633057,0.2850952,81 
-38.68103,24.94812,-27.09961,0.099609375,1.1491699,0.17089844,-0.33728027,-0.17633057,0.2850952,82 
-4.470825,44.433594,-33.75244,0.071777344,1.2832031,0.19873047,-0.3383789,-0.17596436,0.29315186,83 
25.497437,67.19971,-47.027588,0.061035156,1.3828125,0.31152344,-0.3383789,-0.17596436,0.29315186,84 
82.229614,67.855835,-64.74304,0.09716797,1.4541016,0.3466797,-0.3383789,-0.17596436,0.29315186,85 
150.80261,74.3866,-35.003662,0.045410156,1.4926758,0.24316406,-0.3449707,-0.17633057,0.28912354,86 
196.85364,88.7146,-13.046265,-0.05908203,1.4597168,0.10449219,-0.3449707,-0.17633057,0.28912354,87 
231.04858,67.50488,-28.778076,-0.07543945,1.3664551,0.03564453,-0.34643555,-0.17852783,0.27301025,88 
294.9524,72.70813,-7.6141357,-0.13476562,1.192627,0.13867188,-0.34643555,-0.17852783,0.27301025,89 
324.60022,74.69177,-37.67395,-0.21411133,1.0498047,0.23144531,-0.34643555,-0.17852783,0.27301025,90 
352.5238,73.82202,-34.39331,-0.018554688,0.8925781,0.3395996,-0.3446045,-0.17779541,0.24810791,92 
359.06982,76.50757,-32.86743,0.036376953,0.87524414,0.32739258,-0.3515625,-0.17486572,0.22247314,93 
331.3446,81.832886,-29.49524,0.06665039,0.80859375,0.33129883,-0.3515625,-0.17486572,0.22247314,94 
277.0691,90.49988,-30.273438,0.09423828,0.701416,0.33691406,-0.3515625,-0.17486572,0.19720459,95 
220.03174,96.38977,-34.53064,0.1159668,0.64624023,0.3425293,-0.35412598,-0.16644287,0.19720459,96 
184.81445,93.85681,-43.624878,0.14550781,0.6574707,0.35717773,-0.35412598,-0.16644287,0.19720459,97 
168.48755,90.59143,-45.700073,0.19604492,0.68115234,0.39941406,-0.36071777,-0.16131592,0.18145752,98 
150.84839,86.21216,-43.655396,0.23730469,0.6508789,0.41674805,-0.36071777,-0.16131592,0.18145752,99 
125.39673,81.92444,-43.5791,0.26342773,0.609375,0.421875,-0.36071777,-0.16131592,0.18145752,100 
110.27527,76.40076,-41.793823,0.2849121,0.6057129,0.42626953,-0.36328125,-0.1609497,0.17047119,101 
93.47534,72.11304,-38.894653,0.30419922,0.59350586,0.43530273,-0.36328125,-0.1609497,0.17047119,102 
71.136475,66.345215,-40.603638,0.3232422,0.5827637,0.44335938,-0.36914062,-0.15582275,0.16241455,103 
51.80359,58.776855,-40.512085,0.35620117,0.5866699,0.44970703,-0.36914062,-0.15582275,0.16241455,104 
54.641724,51.361084,-35.583496,0.38549805,0.6213379,0.453125,-0.36914062,-0.15582275,0.16241455,105 
49.27063,42.98401,-30.426025,0.39697266,0.65234375,0.4736328,-0.37023926,-0.15582275,0.1539917,106 
43.502808,35.308838,-25.421143,0.39794922,0.6772461,0.5053711,-0.37023926,-0.15582275,0.1539917,107 
31.61621,29.891968,-24.20044,0.38891602,0.68969727,0.5275879,-0.3753662,-0.15142822,0.15252686,108 
21.011353,24.627686,-22.598267,0.38208008,0.69799805,0.5437012,-0.3753662,-0.15142822,0.15252686,109 
12.496948,20.263672,-23.330688,0.36938477,0.7050781,0.5686035,-0.3753662,-0.15289307,0.14776611,110 
4.5776367,16.708374,-22.476196,0.35180664,0.72924805,0.5925293,-0.3746338,-0.15289307,0.14776611,111 
5.2948,10.513306,-15.563965,0.33935547,0.77490234,0.61376953,-0.3746338,-0.15289307,0.14776611,112 
9.490967,7.4768066,-9.277344,0.31884766,0.8171387,0.63305664,-0.3782959,-0.14849854,0.1473999,113 
7.583618,7.598877,-6.088257,0.29125977,0.8227539,0.6394043,-0.3782959,-0.14849854,0.1473999,114 
1.2664795,9.490967,-3.463745,0.2692871,0.8088379,0.63012695,-0.3782959,-0.14849854,0.1473999,115 
-1.9073486,10.940552,-4.776001,0.25073242,0.79418945,0.6047363,-0.37719727,-0.1506958,0.15289307,116 
-5.004883,11.230469,-5.218506,0.2475586,0.7805176,0.5847168,-0.37719727,-0.1506958,0.15289307,117 
-6.6833496,11.566162,-6.362915,0.2475586,0.7631836,0.56518555,-0.37902832,-0.14996338,0.1539917,118 
-5.8288574,10.238647,-9.58252,0.2553711,0.76220703,0.5529785,-0.37902832,-0.14996338,0.1539917,119 
-3.3569336,9.063721,-13.35144,0.26245117,0.7702637,0.5500488,-0.37902832,-0.14996338,0.1539917,120 
-0.36621094,8.178711,-17.623901,0.26416016,0.7758789,0.55029297,-0.37719727,-0.14959717,0.15106201,121 
3.768921,6.4849854,-19.882202,0.26733398,0.79467773,0.548584,-0.37719727,-0.14959717,0.15106201,122 
7.873535,6.0577393,-20.767212,0.26538086,0.80859375,0.55029297,-0.38012695,-0.15106201,0.15545654,123 
11.672974,6.744385,-23.269653,0.25976562,0.8137207,0.5554199,-0.38012695,-0.15106201,0.15545654,124 
10.101318,8.407593,-28.625488,0.25805664,0.79663086,0.5661621,-0.38012695,-0.14776611,0.14776611,125 
2.029419,12.023926,-33.00476,0.25830078,0.76538086,0.56884766,-0.37939453,-0.14776611,0.14776611,126 
-2.1209717,13.671875,-38.604736,0.26342773,0.7565918,0.5734863,-0.37939453,-0.14776611,0.14776611,127 
-3.0059814,16.113281,-47.51587,0.26049805,0.76416016,0.58325195,-0.38891602,-0.1506958,0.15179443,128 
-3.9367676,19.77539,-54.595947,0.2512207,0.7746582,0.58740234,-0.38891602,-0.1506958,0.15179443,129 
-0.5493164,21.255493,-61.569214,0.25048828,0.7895508,0.5810547,-0.38891602,-0.1506958,0.14666748,130 
