GX, GY, GZ, AX, AY, AZ, MX, MY, MZ, TS, tags
-4.8065186,0.7019043,5.2948,0.08251953,0.7861328,0.5720215,0.068115234,-0.03479004,0.042114258,201 
-4.119873,0.5493164,5.6152344,0.08203125,0.7844238,0.5710449,0.071777344,-0.036987305,0.045410156,202 
-4.1656494,0.45776367,5.859375,0.080566406,0.7841797,0.57128906,0.071777344,-0.036987305,0.045410156,203 
-3.2653809,0.21362305,5.6762695,0.078125,0.7844238,0.5710449,0.071777344,-0.036987305,0.045410156,204 
-3.7994385,0.39672852,5.3710938,0.07714844,0.7836914,0.57055664,0.06958008,-0.033691406,0.051635742,205 
-3.3569336,1.1901855,5.7525635,0.076416016,0.78271484,0.5710449,0.06958008,-0.033691406,0.051635742,206 
-3.3874512,1.373291,5.4016113,0.075927734,0.7824707,0.5710449,0.06738281,-0.033691406,0.05090332,207 
-7.751465,1.1444092,4.623413,0.07519531,0.78344727,0.5710449,0.06738281,-0.033691406,0.05090332,208 
-3.1585693,2.670288,4.333496,0.07421875,0.7836914,0.5715332,0.06738281,-0.033691406,0.05090332,209 
-3.036499,2.5177002,3.6773682,0.07495117,0.78466797,0.57250977,0.06518555,-0.035888672,0.049804688,210 
-3.0212402,2.3498535,3.3721924,0.075927734,0.78564453,0.5722656,0.06518555,-0.035888672,0.049804688,211 
-2.4414062,2.4414062,3.3721924,0.076171875,0.7858887,0.57299805,0.07543945,-0.036987305,0.049804688,212 
-2.7008057,3.4179688,3.1433105,0.075927734,0.7854004,0.5734863,0.07543945,-0.036987305,0.049804688,213 
-2.1362305,4.0893555,2.7313232,0.076660156,0.7841797,0.57250977,0.07543945,-0.036987305,0.049804688,214 
-1.2054443,3.9520264,2.1972656,0.07739258,0.78271484,0.5722656,0.07434082,-0.036621094,0.043945312,215 
-0.8087158,3.8146973,1.4343262,0.0769043,0.7817383,0.57177734,0.07434082,-0.036621094,0.043945312,216 
-0.015258789,4.8980713,0.77819824,0.076416016,0.782959,0.5708008,0.068481445,-0.036621094,0.045776367,217 
0.1373291,4.9591064,-0.36621094,0.07714844,0.7836914,0.5710449,0.068481445,-0.036621094,0.045776367,218 
1.2969971,5.264282,-0.5187988,0.079589844,0.7849121,0.57128906,0.068481445,-0.036621094,0.045776367,219 
1.663208,5.2337646,-0.8544922,0.08227539,0.78393555,0.5708008,0.068115234,-0.03552246,0.047973633,220 
2.2125244,5.065918,-0.5340576,0.084228516,0.78271484,0.57055664,0.068115234,-0.03552246,0.047973633,221 
2.5482178,5.2490234,-0.8239746,0.08642578,0.78100586,0.5710449,0.06994629,-0.03552246,0.049804688,222 
2.3345947,5.4473877,-0.90026855,0.087646484,0.78027344,0.5710449,0.06994629,-0.03552246,0.049804688,223 
1.953125,5.126953,-1.0375977,0.08935547,0.779541,0.5715332,0.06994629,-0.03552246,0.049804688,224 
1.7547607,4.776001,-0.64086914,0.09033203,0.779541,0.5722656,0.068115234,-0.03515625,0.043945312,225 
1.0528564,3.8604736,-0.4272461,0.09057617,0.779541,0.57250977,0.068115234,-0.03515625,0.043945312,226 
1.3580322,3.982544,-0.8392334,0.09057617,0.7805176,0.5727539,0.06774902,-0.038085938,0.0435791,227 
1.2817383,4.5318604,-0.6713867,0.09008789,0.78027344,0.5732422,0.06774902,-0.038085938,0.0435791,228 
1.1901855,3.4942627,-0.50354004,0.08984375,0.7805176,0.5732422,0.06774902,-0.038085938,0.0435791,229 
0.64086914,3.6010742,0.015258789,0.08984375,0.7800293,0.57299805,0.0703125,-0.036254883,0.05053711,230 
0.88500977,2.6245117,0.1373291,0.08959961,0.7805176,0.5722656,0.0703125,-0.036254883,0.05053711,231 
1.4648438,2.6245117,0.1373291,0.08935547,0.78100586,0.57177734,0.07287598,-0.036987305,0.046142578,232 
1.3122559,2.9144287,0.33569336,0.088378906,0.78125,0.5720215,0.07287598,-0.036987305,0.046142578,233 
1.0986328,2.3651123,0.24414062,0.088378906,0.7817383,0.5720215,0.07287598,-0.036987305,0.046142578,234 
1.4801025,1.9989014,0.32043457,0.088134766,0.7817383,0.5722656,0.068481445,-0.036254883,0.04724121,235 
1.876831,2.5177002,0.869751,0.087890625,0.7817383,0.5720215,0.068481445,-0.036254883,0.04724121,236 
2.105713,2.0599365,0.6713867,0.087646484,0.7819824,0.57177734,0.06591797,-0.036987305,0.052001953,237 
2.1820068,1.3580322,0.88500977,0.0871582,0.7819824,0.5720215,0.06591797,-0.036987305,0.052001953,238 
1.663208,1.876831,1.2207031,0.08642578,0.78100586,0.5727539,0.06591797,-0.036987305,0.052001953,239 
1.9226074,1.9989014,1.5411377,0.08569336,0.78027344,0.5732422,0.072143555,-0.036987305,0.046875,240 
1.663208,1.8005371,1.5106201,0.0847168,0.7792969,0.5739746,0.072143555,-0.036987305,0.046875,241 
1.1901855,1.5563965,1.876831,0.0847168,0.77856445,0.5734863,0.07507324,-0.036254883,0.047973633,242 
1.3580322,1.6784668,1.739502,0.083496094,0.7788086,0.57373047,0.07507324,-0.036254883,0.047973633,243 
0.77819824,1.5869141,1.8463135,0.08227539,0.7788086,0.5732422,0.07507324,-0.036254883,0.047973633,244 
0.62561035,2.6855469,1.1749268,0.08203125,0.7792969,0.57373047,0.068847656,-0.03112793,0.05126953,245 
-0.15258789,2.5482178,1.4648438,0.08227539,0.77978516,0.57373047,0.068847656,-0.03112793,0.05126953,246 
-0.6866455,3.9978027,1.7547607,0.08227539,0.7805176,0.5739746,0.06774902,-0.036254883,0.048339844,247 
-0.9765625,3.768921,1.6174316,0.08203125,0.7807617,0.5734863,0.06774902,-0.036254883,0.048339844,248 
-0.7019043,3.1738281,1.4801025,0.08227539,0.7817383,0.57299805,0.06774902,-0.036254883,0.048339844,249 
-0.32043457,3.4484863,1.5563965,0.08178711,0.7817383,0.5722656,0.068481445,-0.037719727,0.04724121,250 
0.6866455,3.4942627,1.0681152,0.08105469,0.78149414,0.5720215,0.068481445,-0.037719727,0.04724121,251 
0.5493164,3.2043457,1.0528564,0.080078125,0.78149414,0.5720215,0.072509766,-0.037719727,0.045776367,252 
0.9613037,3.463745,1.2207031,0.080566406,0.78100586,0.5722656,0.072509766,-0.037719727,0.045776367,253 
0.8544922,3.7231445,1.2359619,0.08154297,0.7805176,0.57250977,0.072509766,-0.037719727,0.045776367,254 
0.9460449,3.112793,1.2359619,0.08227539,0.78027344,0.57250977,0.06518555,-0.03552246,0.04650879,255 
0.2593994,2.7160645,1.4801025,0.08227539,0.78100586,0.5720215,0.06518555,-0.03552246,0.04650879,0 
0.39672852,2.6245117,1.5411377,0.08203125,0.7817383,0.5732422,0.06665039,-0.03955078,0.04724121,1 
0.47302246,2.6397705,1.083374,0.08129883,0.78149414,0.5739746,0.06665039,-0.03955078,0.04724121,2 
0.32043457,2.670288,0.93078613,0.08178711,0.78149414,0.5751953,0.06665039,-0.03955078,0.04724121,3 
-0.21362305,2.029419,1.0070801,0.08129883,0.78100586,0.5756836,0.07104492,-0.03955078,0.053833008,4 
0.8239746,2.4414062,0.22888184,0.080322266,0.78100586,0.5761719,0.07104492,-0.03955078,0.053833008,5 
1.2512207,3.2348633,0.091552734,0.080322266,0.7805176,0.5751953,0.068847656,-0.036254883,0.045776367,6 
0.64086914,2.9907227,-0.47302246,0.08105469,0.77905273,0.57470703,0.068847656,-0.036254883,0.045776367,7 
0.5493164,2.9144287,-0.35095215,0.08227539,0.77783203,0.5739746,0.068847656,-0.036254883,0.045776367,8 
-0.22888184,2.89917,-0.30517578,0.0847168,0.77856445,0.5732422,0.068481445,-0.036987305,0.047973633,9 
-0.76293945,1.8920898,-0.32043457,0.08544922,0.779541,0.5720215,0.068481445,-0.036987305,0.047973633,10 
-1.4953613,1.8157959,-0.15258789,0.0847168,0.7780762,0.5727539,0.068481445,-0.037353516,0.0501709,11 
-1.7547607,1.5258789,-0.74768066,0.08325195,0.7753906,0.5722656,0.06738281,-0.037353516,0.0501709,12 
-2.105713,1.2359619,-3.5705566,0.07739258,0.7746582,0.5673828,0.072509766,-0.03479004,0.049438477,14 
-3.2806396,0.7019043,-5.5999756,0.07714844,0.77075195,0.56347656,0.072509766,-0.03479004,0.049438477,15 
-6.7749023,0.45776367,-9.109497,0.078125,0.7663574,0.55737305,0.072509766,-0.03479004,0.049804688,16 
-11.71875,-4.8217773,-12.054443,0.080078125,0.7685547,0.54907227,0.07324219,-0.03479004,0.049804688,17 
-4.989624,-3.9520264,-12.680054,0.07397461,0.7883301,0.5522461,0.07324219,-0.03479004,0.049804688,18 
-2.532959,1.449585,-11.367798,0.06542969,0.80737305,0.5710449,0.068481445,-0.03479004,0.04724121,19 
-1.4343262,4.501343,-10.4522705,0.06738281,0.7993164,0.58569336,0.068481445,-0.03479004,0.04724121,20 
-3.2806396,2.2277832,-10.3302,0.07421875,0.77075195,0.59521484,0.068481445,-0.03479004,0.04724121,21 
-6.9122314,1.5563965,-11.672974,0.07373047,0.7507324,0.6010742,0.06774902,-0.035888672,0.05053711,22 
-7.003784,4.7302246,-13.565063,0.07104492,0.7585449,0.5957031,0.06774902,-0.035888672,0.05053711,23 
-2.6855469,6.134033,-14.434814,0.07763672,0.77734375,0.57958984,0.0703125,-0.03881836,0.05126953,24 
1.6021729,4.714966,-13.473511,0.087646484,0.7937012,0.5671387,0.0703125,-0.03881836,0.05126953,25 
2.670288,4.4555664,-12.298584,0.09326172,0.8010254,0.5625,0.0703125,-0.03881836,0.05126953,26 
1.6479492,4.562378,-10.040283,0.09741211,0.8010254,0.5612793,0.0703125,-0.03918457,0.046142578,27 
-0.76293945,3.9215088,-8.163452,0.10083008,0.80126953,0.5629883,0.0703125,-0.03918457,0.046142578,28 
-0.869751,4.1046143,-6.011963,0.10083008,0.8100586,0.56591797,0.059692383,-0.036254883,0.047607422,29 
3.0975342,3.753662,-5.3253174,0.09838867,0.8276367,0.57055664,0.059692383,-0.036254883,0.047607422,30 
7.369995,5.340576,-6.011963,0.09472656,0.8227539,0.5769043,0.059692383,-0.036254883,0.047607422,31 
8.605957,6.1187744,-7.9956055,0.09667969,0.810791,0.57958984,0.06298828,-0.039916992,0.049804688,32 
10.620117,8.865356,-11.672974,0.10107422,0.8125,0.5690918,0.06298828,-0.039916992,0.049804688,33 
4.776001,9.70459,-4.852295,0.096191406,0.8017578,0.57128906,0.0670166,-0.0435791,0.053466797,34 
2.5024414,13.2751465,0.7171631,0.08862305,0.7619629,0.57128906,0.0670166,-0.0435791,0.053466797,35 
5.0811768,11.09314,-2.1820068,0.08666992,0.7404785,0.5600586,0.0670166,-0.0435791,0.053466797,36 
5.6152344,14.419556,-10.5896,0.08959961,0.7504883,0.5498047,0.06774902,-0.035888672,0.047973633,37 
-2.5634766,14.73999,-10.787964,0.09790039,0.7717285,0.5571289,0.06774902,-0.035888672,0.047973633,38 
-11.703491,9.399414,-3.189087,0.11328125,0.75805664,0.5644531,0.060424805,-0.03515625,0.049072266,39 
-10.71167,2.243042,-0.7324219,0.12524414,0.7385254,0.5620117,0.060424805,-0.03515625,0.049072266,40 
-7.385254,0.30517578,-2.8076172,0.11645508,0.7451172,0.56689453,0.060424805,-0.03515625,0.049072266,41 
-3.6773682,2.4871826,-4.79126,0.109375,0.76586914,0.5666504,0.059326172,-0.040649414,0.04650879,42 
-1.6479492,1.8615723,-3.7078857,0.11206055,0.782959,0.56518555,0.059326172,-0.040649414,0.04650879,43 
-3.7841797,-0.32043457,0.869751,0.118652344,0.7858887,0.5649414,0.06188965,-0.03955078,0.051635742,44 
-6.2561035,-2.7313232,3.4179688,0.12011719,0.77978516,0.56518555,0.06188965,-0.03955078,0.051635742,45 
-7.385254,-2.5787354,4.4403076,0.11645508,0.779541,0.5661621,0.06188965,-0.03955078,0.051635742,46 
-7.583618,-1.0223389,4.1503906,0.10961914,0.78393555,0.5671387,0.06298828,-0.038085938,0.05090332,47 
-8.178711,0.15258789,2.7313232,0.10498047,0.7932129,0.5661621,0.06298828,-0.038085938,0.05090332,48 
-7.9040527,0.77819824,3.112793,0.099609375,0.79589844,0.57055664,0.05859375,-0.03552246,0.052001953,49 
-4.547119,1.8463135,3.0822754,0.09838867,0.796875,0.5671387,0.05859375,-0.03552246,0.052001953,50 
-1.8920898,2.7313232,3.2348633,0.096191406,0.8034668,0.5625,0.05859375,-0.03552246,0.052001953,51 
0.2593994,3.3111572,4.486084,0.095947266,0.8029785,0.55908203,0.060791016,-0.03918457,0.053833008,52 
2.105713,7.736206,4.760742,0.09838867,0.79785156,0.55566406,0.060791016,-0.03918457,0.053833008,53 
1.953125,3.326416,4.989624,0.09863281,0.7895508,0.55737305,0.064086914,-0.04284668,0.05493164,54 
1.4801025,2.090454,5.1727295,0.099365234,0.77856445,0.55981445,0.064086914,-0.04284668,0.05493164,55 
-0.16784668,0.39672852,4.989624,0.09887695,0.7687988,0.56103516,0.064086914,-0.04284668,0.05493164,56 
-2.6397705,0.2593994,4.776001,0.099853516,0.76049805,0.56225586,0.0637207,-0.036621094,0.05126953,57 
-5.5389404,-0.35095215,5.1574707,0.10473633,0.7570801,0.5612793,0.0637207,-0.036621094,0.05126953,58 
-9.124756,-1.5411377,6.0577393,0.1105957,0.7597656,0.56225586,0.060058594,-0.033691406,0.053100586,59 
-12.954712,-2.6855469,7.156372,0.115234375,0.7668457,0.56518555,0.060058594,-0.033691406,0.053100586,60 
-16.555786,-4.7454834,8.804321,0.11669922,0.7758789,0.56811523,0.060058594,-0.033691406,0.053100586,61 
-18.859863,-5.5389404,9.963989,0.11425781,0.78686523,0.5695801,0.06298828,-0.037353516,0.056762695,62 
-19.622803,-5.41687,10.818481,0.10913086,0.7976074,0.57006836,0.06298828,-0.037353516,0.056762695,63 
-19.515991,-5.004883,10.1623535,0.103759766,0.8039551,0.5678711,0.06665039,-0.03918457,0.057128906,64 
-18.02063,-3.6621094,9.765625,0.09814453,0.8078613,0.56469727,0.06665039,-0.03918457,0.057128906,65 
-15.670776,-2.5787354,9.414673,0.09350586,0.80981445,0.56030273,0.06665039,-0.03918457,0.057128906,66 
-12.557983,-1.1138916,8.270264,0.09008789,0.8112793,0.55566406,0.06994629,-0.03881836,0.053833008,67 
-8.514404,0.045776367,7.232666,0.08642578,0.81152344,0.5505371,0.06994629,-0.03881836,0.053833008,68 
-4.3029785,1.0070801,6.3171387,0.083496094,0.81274414,0.5463867,0.06555176,-0.036254883,0.060791016,69 
-0.1373291,2.1514893,5.41687,0.08227539,0.81347656,0.5432129,0.06555176,-0.036254883,0.060791016,70 
2.7313232,2.7923584,4.837036,0.08154297,0.81274414,0.54125977,0.06555176,-0.036254883,0.060791016,71 
5.645752,2.822876,3.753662,0.08105469,0.8112793,0.5415039,0.06555176,-0.03845215,0.06262207,72 
8.026123,2.7618408,2.8839111,0.080078125,0.8105469,0.5437012,0.06555176,-0.03845215,0.06262207,73 
8.956909,2.9144287,3.0670166,0.080078125,0.80859375,0.54541016,0.0703125,-0.037353516,0.05529785,74 
8.81958,2.5787354,2.6550293,0.08105469,0.80493164,0.5476074,0.0703125,-0.037353516,0.05529785,75 
8.529663,2.1514893,2.9754639,0.08154297,0.79956055,0.54907227,0.0703125,-0.037353516,0.05529785,76 
6.942749,2.3498535,2.5177002,0.08203125,0.79345703,0.55200195,0.06591797,-0.039916992,0.05822754,77 
4.547119,1.7852783,2.670288,0.08178711,0.78881836,0.5534668,0.06591797,-0.039916992,0.05822754,78 
3.2043457,1.5869141,2.380371,0.08154297,0.7858887,0.5551758,0.0637207,-0.035888672,0.061157227,79 
0.5493164,1.9836426,2.166748,0.08081055,0.7854004,0.5554199,0.0637207,-0.035888672,0.061157227,80 
-1.083374,1.5106201,1.9683838,0.080566406,0.78637695,0.55444336,0.0637207,-0.035888672,0.061157227,81 
-2.1820068,2.1820068,1.6937256,0.080322266,0.7873535,0.5534668,0.068115234,-0.03845215,0.06335449,82 
-3.0822754,1.7089844,2.090454,0.0793457,0.78930664,0.5498047,0.068115234,-0.03845215,0.06335449,83 
-3.5858154,2.0141602,1.9683838,0.07861328,0.79125977,0.54785156,0.0736084,-0.043945312,0.06188965,84 
-3.3416748,2.105713,2.3040771,0.07763672,0.79296875,0.54589844,0.0736084,-0.043945312,0.06188965,85 
-2.960205,1.9989014,1.9989014,0.076416016,0.7949219,0.5439453,0.0736084,-0.043945312,0.06188965,86 
-2.243042,3.1280518,1.739502,0.07519531,0.79785156,0.54296875,0.06591797,-0.038085938,0.056762695,87 
-0.8239746,3.3416748,1.3275146,0.07446289,0.79956055,0.54248047,0.06591797,-0.038085938,0.056762695,88 
0.8239746,3.6315918,1.2512207,0.07446289,0.80078125,0.54296875,0.064453125,-0.036987305,0.056396484,89 
2.1820068,4.0740967,1.083374,0.07397461,0.8005371,0.54418945,0.064453125,-0.036987305,0.056396484,90 
2.4414062,4.211426,0.32043457,0.072509766,0.7998047,0.54589844,0.064453125,-0.036987305,0.056396484,91 
3.0212402,5.0964355,-0.076293945,0.072509766,0.79907227,0.54785156,0.0703125,-0.042114258,0.05859375,92 
2.8533936,6.072998,-0.5340576,0.07324219,0.79833984,0.5493164,0.0703125,-0.042114258,0.05859375,93 
3.2348633,6.134033,-0.45776367,0.07495117,0.7976074,0.55078125,0.072509766,-0.040283203,0.05895996,94 
3.1280518,5.9051514,-0.7019043,0.07714844,0.79663086,0.55200195,0.072509766,-0.040283203,0.05895996,95 
2.380371,5.5999756,-0.12207031,0.0793457,0.79467773,0.55249023,0.072509766,-0.040283203,0.05895996,96 
1.4648438,6.088257,-0.030517578,0.08154297,0.79248047,0.55322266,0.06738281,-0.03845215,0.056396484,97 
0.7324219,5.6762695,0.061035156,0.08203125,0.79052734,0.55322266,0.06738281,-0.03845215,0.056396484,98 
0.88500977,5.569458,0.21362305,0.08300781,0.7907715,0.5527344,0.06738281,-0.040283203,0.056396484,99 
0.9460449,5.79834,0.579834,0.084472656,0.7897949,0.5539551,0.06262207,-0.040283203,0.056396484,100 
0.21362305,5.6610107,0.16784668,0.08496094,0.7883301,0.5554199,0.06262207,-0.040283203,0.056396484,101 
-0.16784668,5.6762695,0.50354004,0.08618164,0.7878418,0.55615234,0.07067871,-0.039916992,0.056030273,102 
-0.579834,5.8898926,0.5187988,0.08666992,0.79003906,0.55615234,0.07067871,-0.039916992,0.056030273,103 
-1.0223389,5.9661865,0.90026855,0.087646484,0.79174805,0.5554199,0.07067871,-0.041748047,0.05895996,104 
-0.91552734,5.584717,0.77819824,0.087890625,0.79174805,0.5551758,0.07067871,-0.041748047,0.05895996,105 
-0.9918213,4.852295,0.36621094,0.088134766,0.7915039,0.55615234,0.07067871,-0.041748047,0.05895996,106 
-1.0528564,4.8217773,0.8087158,0.087890625,0.79248047,0.55688477,0.064819336,-0.039916992,0.053833008,107 
-0.9613037,5.645752,0.579834,0.08642578,0.79345703,0.55737305,0.064819336,-0.039916992,0.053833008,108 
-0.90026855,6.011963,-0.5645752,0.087402344,0.7932129,0.5566406,0.064819336,-0.039916992,0.057495117,109 
-0.45776367,5.9509277,-0.5645752,0.08959961,0.7922363,0.5571289,0.06994629,-0.040283203,0.057495117,110 
-0.48828125,5.2490234,-0.4272461,0.09008789,0.7937012,0.5588379,0.06994629,-0.040283203,0.057495117,111 
-0.6866455,5.355835,-0.076293945,0.08935547,0.7961426,0.56030273,0.0703125,-0.041748047,0.059692383,112 
-0.8544922,6.6375732,0.2593994,0.08886719,0.79711914,0.5595703,0.0703125,-0.041748047,0.059692383,113 
-1.5716553,5.6762695,-0.030517578,0.08984375,0.7961426,0.5583496,0.0703125,-0.041748047,0.059692383,114 
-1.9378662,4.8217773,0.45776367,0.08935547,0.7949219,0.5576172,0.07141113,-0.043945312,0.060424805,115 
-2.166748,5.5999756,0.22888184,0.08642578,0.79711914,0.5583496,0.07141113,-0.043945312,0.060424805,116 
-1.2969971,6.164551,-0.4272461,0.083496094,0.80371094,0.5612793,0.06518555,-0.03918457,0.060058594,117 
-0.12207031,6.6070557,-1.159668,0.08227539,0.8105469,0.56469727,0.06518555,-0.03918457,0.060058594,118 
0.88500977,6.3934326,-1.3122559,0.08227539,0.81640625,0.56591797,0.06518555,-0.03918457,0.060058594,119 
0.9460449,5.859375,-1.5106201,0.08251953,0.81591797,0.5649414,0.06774902,-0.03881836,0.057861328,120 
-0.33569336,5.264282,-1.9073486,0.08251953,0.8112793,0.5612793,0.06774902,-0.03881836,0.057861328,121 
-0.8239746,4.4403076,-2.4108887,0.08251953,0.8054199,0.5559082,0.06958008,-0.04321289,0.056762695,122 
-1.4648438,3.5705566,-2.7160645,0.08300781,0.80029297,0.55126953,0.06958008,-0.04321289,0.056762695,123 
-2.3040771,3.2043457,-0.10681152,0.083496094,0.7956543,0.54907227,0.06958008,-0.04321289,0.056762695,124 
-2.6245117,2.1362305,-4.8828125,0.08325195,0.79125977,0.55200195,0.06958008,-0.038085938,0.05859375,125 
-3.1738281,1.6326904,-6.92749,0.08227539,0.7915039,0.5527344,0.06958008,-0.038085938,0.05859375,126 
-3.326416,2.1362305,-9.063721,0.080566406,0.79345703,0.5510254,0.0637207,-0.039916992,0.053833008,127 
-6.790161,2.029419,-11.291504,0.08129883,0.78515625,0.546875,0.0637207,-0.039916992,0.053833008,128 
-12.710571,0.045776367,-15.136719,0.08105469,0.76171875,0.5385742,0.0637207,-0.039916992,0.053833008,129 
-20.339966,0.5645752,-22.338867,0.0769043,0.73828125,0.52441406,0.064453125,-0.03881836,0.05822754,130 
-19.500732,4.196167,-29.953003,0.06933594,0.7336426,0.51660156,0.064453125,-0.03881836,0.05822754,131 
-17.089844,8.911133,-33.111572,0.06640625,0.7663574,0.5292969,0.06628418,-0.039916992,0.064453125,132 
-12.710571,13.778687,-32.11975,0.07006836,0.8046875,0.5378418,0.06628418,-0.039916992,0.064453125,133 
-8.300781,20.67566,-30.563354,0.080078125,0.8186035,0.5498047,0.06628418,-0.039916992,0.064453125,134 
-20.095825,9.841919,-28.839111,0.10498047,0.8149414,0.5541992,0.061157227,-0.044311523,0.06262207,135 
-27.252197,5.6610107,-29.922485,0.10888672,0.7902832,0.5539551,0.061157227,-0.044311523,0.06262207,136 
-33.52356,8.041382,-32.53174,0.10595703,0.77368164,0.5498047,0.051635742,-0.044311523,0.05859375,137 
-35.67505,8.270264,-33.63037,0.11254883,0.7636719,0.5415039,0.051635742,-0.044311523,0.05859375,138 
-44.21997,6.362915,-32.89795,0.123535156,0.76586914,0.5341797,0.051635742,-0.044311523,0.05859375,139 
-55.19104,3.6621094,-30.685425,0.13232422,0.78027344,0.52734375,0.05090332,-0.046142578,0.064819336,140 
-56.671143,3.3416748,-28.671265,0.1352539,0.8022461,0.5205078,0.05090332,-0.046142578,0.064819336,141 
-54.07715,2.2125244,-24.490356,0.13745117,0.83154297,0.5107422,0.05493164,-0.048706055,0.071777344,142 
-47.89734,1.9989014,-20.9198,0.13769531,0.86572266,0.5007324,0.05493164,-0.048706055,0.071777344,143 
-38.208008,2.8381348,-16.860962,0.13500977,0.88964844,0.49121094,0.05493164,-0.048706055,0.071777344,144 
-24.337769,4.2266846,-13.305664,0.12866211,0.9042969,0.48242188,0.05126953,-0.048339844,0.071777344,145 
-8.651733,6.5460205,-11.703491,0.12426758,0.9086914,0.4741211,0.05126953,-0.048339844,0.071777344,146 
5.1727295,7.8125,-10.482788,0.12060547,0.90283203,0.47070312,0.046875,-0.047607422,0.07434082,147 
17.623901,10.513306,-10.375977,0.1171875,0.8937988,0.46899414,0.046875,-0.047607422,0.07434082,148 
28.137207,13.61084,-10.894775,0.115478516,0.88378906,0.47021484,0.046875,-0.047607422,0.07434082,149 
36.132812,15.472412,-10.925293,0.1184082,0.87353516,0.47192383,0.044677734,-0.0501709,0.07507324,150 
41.519165,16.174316,-10.1623535,0.12475586,0.85839844,0.47558594,0.044677734,-0.0501709,0.07507324,151 
44.708252,15.762329,-8.270264,0.13378906,0.842041,0.47973633,0.0501709,-0.049804688,0.07287598,152 
47.698975,16.067505,-5.7373047,0.14208984,0.82788086,0.48388672,0.0501709,-0.049804688,0.07287598,153 
48.706055,14.907837,-3.0670166,0.15112305,0.8166504,0.4868164,0.0501709,-0.049804688,0.07287598,154 
50.03357,13.702393,-0.015258789,0.15820312,0.8083496,0.49145508,0.048706055,-0.048706055,0.06591797,155 
50.38452,11.962891,2.8839111,0.16601562,0.80200195,0.49682617,0.048706055,-0.048706055,0.06591797,156 
48.965454,10.559082,5.4016113,0.17211914,0.7976074,0.5031738,0.04724121,-0.043945312,0.064453125,157 
48.50769,8.682251,7.9803467,0.17529297,0.7937012,0.51000977,0.04724121,-0.043945312,0.064453125,158 
45.669556,7.2784424,9.82666,0.17651367,0.7885742,0.51831055,0.04724121,-0.043945312,0.064453125,159 
42.57202,6.011963,10.71167,0.1743164,0.7836914,0.5280762,0.05090332,-0.04650879,0.05859375,160 
37.521362,4.3640137,11.276245,0.17089844,0.77685547,0.53759766,0.05090332,-0.04650879,0.05859375,161 
31.768799,3.6621094,10.391235,0.16503906,0.77001953,0.54589844,0.05419922,-0.04321289,0.057495117,162 
27.420044,3.112793,9.246826,0.15844727,0.76464844,0.55249023,0.05419922,-0.04321289,0.057495117,163 
23.880005,3.4942627,7.522583,0.15161133,0.7602539,0.55859375,0.05419922,-0.04321289,0.057495117,164 
20.492554,3.540039,6.2408447,0.14770508,0.75561523,0.56225586,0.051635742,-0.043945312,0.053466797,165 
16.998291,2.7008057,5.0354004,0.14404297,0.7507324,0.56469727,0.051635742,-0.043945312,0.053466797,166 
14.3585205,3.5705566,3.5552979,0.13916016,0.7470703,0.56591797,0.047973633,-0.040649414,0.056396484,167 
11.886597,4.2419434,2.2277832,0.13623047,0.74487305,0.56640625,0.047973633,-0.040649414,0.056396484,168 
9.3688965,5.203247,0.36621094,0.13427734,0.7434082,0.56640625,0.047973633,-0.040649414,0.056396484,169 
7.5531006,5.0964355,-0.35095215,0.13330078,0.7434082,0.5656738,0.049438477,-0.0435791,0.052001953,170 
5.996704,5.7373047,-1.3580322,0.1340332,0.7451172,0.56518555,0.049438477,-0.0435791,0.052001953,171 
5.2337646,6.7596436,-1.6479492,0.13549805,0.74902344,0.5644531,0.05419922,-0.041015625,0.053466797,172 
4.4403076,6.6070557,-1.6174316,0.13867188,0.7531738,0.5637207,0.05419922,-0.041015625,0.053466797,173 
3.982544,6.6070557,-1.5258789,0.14038086,0.7558594,0.56518555,0.05419922,-0.041015625,0.053466797,174 
3.5247803,7.1258545,-0.9613037,0.14111328,0.76000977,0.56762695,0.047607422,-0.04321289,0.053833008,175 
2.7618408,6.8969727,-0.5340576,0.14331055,0.76464844,0.5698242,0.047607422,-0.04321289,0.053833008,176 
3.3569336,6.6986084,0.45776367,0.14648438,0.76831055,0.57177734,0.04724121,-0.041015625,0.053833008,177 
2.1972656,5.5236816,1.663208,0.1496582,0.77075195,0.5744629,0.04724121,-0.041015625,0.053833008,178 
2.1972656,5.859375,2.5787354,0.1508789,0.7717285,0.57788086,0.04724121,-0.041015625,0.053833008,179 
0.091552734,5.6152344,3.6773682,0.15209961,0.7705078,0.5810547,0.049804688,-0.03881836,0.05419922,180 
-2.1972656,4.562378,3.6621094,0.15283203,0.76904297,0.58447266,0.049804688,-0.03881836,0.05419922,181 
-4.974365,4.7302246,4.486084,0.15356445,0.767334,0.5852051,0.052001953,-0.041381836,0.05419922,182 
-7.293701,3.3874512,4.272461,0.15454102,0.765625,0.58251953,0.052001953,-0.041381836,0.05419922,183 
-7.873535,2.609253,3.4942627,0.15576172,0.76708984,0.57836914,0.052001953,-0.041381836,0.05419922,184 
-8.453369,1.9226074,3.7994385,0.15600586,0.77001953,0.576416,0.049438477,-0.039916992,0.05456543,185 
-9.750366,1.8920898,4.2266846,0.15722656,0.7705078,0.5756836,0.049438477,-0.039916992,0.05456543,186 
-11.154175,0.79345703,5.065918,0.15893555,0.7675781,0.57470703,0.049438477,-0.03955078,0.052368164,187 
-12.313843,0.8544922,5.859375,0.15917969,0.7661133,0.5739746,0.048339844,-0.03955078,0.052368164,188 
-12.466431,0.36621094,5.7373047,0.15942383,0.76953125,0.5710449,0.048339844,-0.03955078,0.052368164,189 
-12.969971,0.0,5.9814453,0.15893555,0.7746582,0.56689453,0.053466797,-0.04321289,0.057861328,190 
-13.122559,-0.38146973,6.6986084,0.1574707,0.779541,0.5629883,0.053466797,-0.04321289,0.057861328,191 
-12.481689,0.18310547,7.30896,0.15429688,0.7819824,0.5578613,0.053466797,-0.04321289,0.060424805,192 
-12.298584,0.6713867,7.751465,0.15063477,0.7836914,0.5534668,0.053466797,-0.041381836,0.060424805,193 
-11.764526,0.6561279,7.9803467,0.1472168,0.7854004,0.5500488,0.053466797,-0.041381836,0.060424805,194 
-11.352539,0.36621094,8.132935,0.14477539,0.7866211,0.5473633,0.052368164,-0.042114258,0.052368164,195 
-10.726929,0.4119873,9.521484,0.14257812,0.7873535,0.54541016,0.052368164,-0.042114258,0.052368164,196 
-10.604858,0.12207031,9.994507,0.14086914,0.7885742,0.54345703,0.052368164,-0.042114258,0.053833008,197 
-10.055542,-1.4190674,10.620117,0.13989258,0.7897949,0.54248047,0.052368164,-0.041381836,0.053833008,198 
-9.765625,-2.029419,11.611938,0.13916016,0.7915039,0.5422363,0.052368164,-0.041381836,0.053833008,199 
-10.391235,-2.8381348,12.512207,0.13745117,0.7922363,0.5437012,0.05456543,-0.0435791,0.05529785,200 
-11.398315,-3.7841797,13.076782,0.13500977,0.7922363,0.54467773,0.05456543,-0.0435791,0.05529785,201 
-12.573242,-5.050659,14.038086,0.13256836,0.79125977,0.54418945,0.05456543,-0.0435791,0.05529785,202 
-12.924194,-5.9814453,14.282227,0.12890625,0.7937012,0.5437012,0.057861328,-0.04321289,0.056030273,203 
-13.702393,-6.2561035,14.328003,0.12548828,0.79663086,0.54052734,0.057861328,-0.04321289,0.056030273,204 
-14.160156,-6.2713623,14.587402,0.12182617,0.79589844,0.5383301,0.052734375,-0.039916992,0.056396484,205 
-15.289307,-7.5531006,13.702393,0.1171875,0.7944336,0.53881836,0.052734375,-0.039916992,0.056396484,206 
-16.555786,-6.4697266,12.710571,0.111328125,0.796875,0.53808594,0.052734375,-0.039916992,0.056396484,207 
-16.51001,-6.072998,12.390137,0.107910156,0.8017578,0.53686523,0.055664062,-0.0435791,0.060424805,208 
-16.494751,-5.9051514,12.359619,0.10668945,0.8076172,0.53466797,0.055664062,-0.0435791,0.060424805,209 
-16.906738,-6.3323975,12.557983,0.10571289,0.8117676,0.532959,0.061523438,-0.044677734,0.0637207,210 
-16.220093,-5.340576,12.710571,0.103027344,0.8156738,0.5319824,0.061523438,-0.044677734,0.0637207,211 
-15.457153,-4.8980713,12.8479,0.10058594,0.8186035,0.5283203,0.061523438,-0.044677734,0.0637207,212 
-14.770508,-4.8065186,13.061523,0.09765625,0.82006836,0.5253906,0.06335449,-0.045410156,0.064086914,213 
-13.641357,-3.8757324,12.481689,0.09472656,0.82006836,0.5246582,0.06335449,-0.045410156,0.064086914,214 
-12.542725,-3.3721924,11.978149,0.09106445,0.81933594,0.52319336,0.056030273,-0.04248047,0.064819336,215 
-11.779785,-1.7547607,10.955811,0.087890625,0.81933594,0.52319336,0.056030273,-0.04248047,0.064819336,216 
-10.375977,-1.2207031,9.521484,0.08520508,0.8190918,0.52246094,0.056030273,-0.04248047,0.064819336,217 
-9.536743,-0.076293945,8.43811,0.08154297,0.82006836,0.5229492,0.059692383,-0.044311523,0.060058594,218 
-8.026123,0.9918213,6.713867,0.080566406,0.8222656,0.5229492,0.059692383,-0.044311523,0.060058594,219 
-7.4310303,1.9683838,6.225586,0.080566406,0.82421875,0.52124023,0.06262207,-0.047973633,0.068481445,220 
-6.439209,2.8686523,5.2337646,0.08129883,0.8256836,0.5202637,0.06262207,-0.047973633,0.068481445,221 
-6.4697266,2.7313232,5.2948,0.08300781,0.8251953,0.51953125,0.06262207,-0.047973633,0.068481445,222 
-5.4626465,3.753662,5.126953,0.08544922,0.8256836,0.517334,0.06738281,-0.044311523,0.068115234,224 
-4.2877197,4.211426,4.699707,0.0871582,0.8261719,0.5163574,0.057495117,-0.040649414,0.0670166,225 
-3.540039,4.562378,4.2419434,0.08935547,0.82666016,0.515625,0.057495117,-0.040649414,0.0670166,226 
-2.8686523,5.218506,4.1046143,0.091552734,0.8256836,0.51538086,0.057495117,-0.040649414,0.0670166,227 
-1.8463135,5.5999756,4.6539307,0.09301758,0.82470703,0.515625,0.064086914,-0.0435791,0.06994629,228 
-1.7089844,5.5236816,4.348755,0.09399414,0.82421875,0.515625,0.064086914,-0.0435791,0.06994629,229 
-1.0681152,5.9814453,3.6010742,0.09472656,0.8244629,0.515625,0.06262207,-0.045410156,0.0637207,230 
-0.289917,6.164551,3.90625,0.096191406,0.82543945,0.51538086,0.06262207,-0.045410156,0.0637207,231 
0.16784668,6.1035156,3.6468506,0.09692383,0.82592773,0.5144043,0.06262207,-0.045410156,0.0637207,232 
1.4190674,5.584717,3.1585693,0.09838867,0.82543945,0.5148926,0.06298828,-0.044677734,0.061157227,233 
1.5869141,5.996704,3.1585693,0.099121094,0.8249512,0.5151367,0.06298828,-0.044677734,0.061157227,234 
2.5482178,5.7525635,3.2653809,0.09887695,0.82373047,0.5148926,0.06225586,-0.044311523,0.06591797,235 
3.9520264,5.7373047,2.8076172,0.099121094,0.82470703,0.5148926,0.06225586,-0.044311523,0.06591797,236 
5.355835,5.996704,2.7618408,0.099365234,0.8244629,0.5144043,0.06225586,-0.044311523,0.06591797,237 
6.3171387,5.4016113,2.5482178,0.099609375,0.82250977,0.5151367,0.060791016,-0.04284668,0.06555176,238 
6.1035156,4.9438477,2.0446777,0.099853516,0.81884766,0.5163574,0.060791016,-0.04284668,0.06555176,239 
5.9051514,5.3863525,1.449585,0.099609375,0.814209,0.51831055,0.06591797,-0.04248047,0.064086914,240 
5.142212,4.7302246,0.93078613,0.099609375,0.8120117,0.5197754,0.06591797,-0.04248047,0.064086914,241 
4.40979,4.5928955,-0.076293945,0.09814453,0.81103516,0.5205078,0.06591797,-0.04248047,0.064086914,242 
3.2958984,4.623413,-0.5340576,0.09814453,0.81030273,0.5209961,0.06225586,-0.043945312,0.06518555,243 
2.9907227,4.928589,-1.0070801,0.09863281,0.8083496,0.5214844,0.06225586,-0.043945312,0.06518555,244 
1.373291,5.0354004,-1.7089844,0.09814453,0.80688477,0.5227051,0.059692383,-0.04284668,0.06518555,245 
0.50354004,4.425049,-2.0141602,0.09838867,0.8063965,0.5239258,0.059692383,-0.04284668,0.06518555,246 
0.061035156,3.9978027,-2.7923584,0.09887695,0.8059082,0.5251465,0.059692383,-0.04284668,0.06518555,247 
-1.0986328,3.3111572,-3.189087,0.09814453,0.80566406,0.5251465,0.06298828,-0.041015625,0.0637207,248 
-0.6866455,3.7231445,-4.0740967,0.09716797,0.8083496,0.5239258,0.06298828,-0.041015625,0.0637207,249 
-0.32043457,3.6773682,-4.974365,0.09765625,0.81103516,0.5234375,0.064453125,-0.044311523,0.06335449,250 
0.38146973,3.8604736,-5.218506,0.100097656,0.81152344,0.5229492,0.064453125,-0.044311523,0.06335449,251 
-0.1373291,3.3874512,-4.8980713,0.10229492,0.81152344,0.52319336,0.064453125,-0.044311523,0.06335449,252 
-0.50354004,3.5247803,-4.3640137,0.103515625,0.81225586,0.5239258,0.06262207,-0.0435791,0.060424805,253 
-0.93078613,3.3721924,-3.8909912,0.10449219,0.8125,0.5241699,0.06262207,-0.0435791,0.060424805,254 
-2.4414062,3.3874512,-4.425049,0.103271484,0.8100586,0.52490234,0.060791016,-0.03881836,0.06628418,255 
-6.591797,3.7384033,-5.1727295,0.10229492,0.80126953,0.5270996,0.060791016,-0.03881836,0.06628418,0 
-14.190674,3.1433105,-6.1950684,0.10253906,0.78564453,0.5319824,0.060791016,-0.03881836,0.06628418,1 
-24.475098,1.3122559,-8.575439,0.10229492,0.7702637,0.53881836,0.061523438,-0.045043945,0.0670166,2 
-36.77368,1.083374,-11.0321045,0.09790039,0.7631836,0.5449219,0.061523438,-0.045043945,0.0670166,3 
-44.525146,1.1749268,-14.602661,0.095458984,0.767334,0.54833984,0.06555176,-0.045410156,0.068481445,4 
-49.01123,1.1291504,-16.540527,0.09741211,0.7817383,0.54467773,0.06555176,-0.045410156,0.068481445,5 
-49.423218,0.61035156,-16.174316,0.10253906,0.8017578,0.5341797,0.06555176,-0.045410156,0.068481445,6 
-46.60034,-0.24414062,-14.205933,0.10864258,0.8220215,0.5222168,0.057861328,-0.047607422,0.0703125,7 
-42.022705,-0.35095215,-11.59668,0.11303711,0.8417969,0.51000977,0.057861328,-0.047607422,0.0703125,8 
-34.973145,0.35095215,-8.300781,0.11303711,0.85839844,0.5007324,0.056030273,-0.047607422,0.07397461,9 
-25.726318,1.373291,-5.3253174,0.11352539,0.8730469,0.49389648,0.056030273,-0.047607422,0.07397461,10 
-14.053345,3.3416748,-2.166748,0.11352539,0.8876953,0.49023438,0.056030273,-0.047607422,0.07397461,11 
-4.0740967,4.1046143,0.8544922,0.115234375,0.89746094,0.4868164,0.06188965,-0.05529785,0.0769043,12 
3.5705566,4.6844482,3.8757324,0.1171875,0.8972168,0.48291016,0.06188965,-0.05529785,0.0769043,13 
9.643555,4.3792725,5.722046,0.11767578,0.88793945,0.48095703,0.059326172,-0.05053711,0.07836914,14 
13.259888,3.9215088,6.790161,0.114746094,0.8757324,0.48120117,0.059326172,-0.05053711,0.07836914,15 
15.914917,4.3792725,6.591797,0.11010742,0.8630371,0.4819336,0.059326172,-0.05053711,0.07836914,16 
18.127441,4.135132,6.729126,0.107421875,0.85180664,0.4814453,0.056396484,-0.04724121,0.07800293,17 
17.929077,3.4484863,6.011963,0.10644531,0.83984375,0.4794922,0.056396484,-0.04724121,0.07800293,18 
18.081665,2.8533936,4.928589,0.10473633,0.8276367,0.47875977,0.056396484,-0.044311523,0.07287598,19 
16.906738,2.4414062,2.380371,0.1027832,0.81640625,0.47851562,0.057128906,-0.044311523,0.07287598,20 
15.258789,2.2888184,-0.38146973,0.1015625,0.8076172,0.4790039,0.057128906,-0.044311523,0.07287598,21 
13.946533,2.1362305,-2.5634766,0.103027344,0.8034668,0.47875977,0.061157227,-0.047607422,0.07470703,22 
12.557983,2.4871826,-4.425049,0.10522461,0.80493164,0.47827148,0.061157227,-0.047607422,0.07470703,23 
11.581421,2.4719238,-4.760742,0.1081543,0.810791,0.47631836,0.061157227,-0.049804688,0.06958008,24 
11.688232,3.4179688,-5.5999756,0.10961914,0.8215332,0.47485352,0.060424805,-0.049804688,0.06958008,25 
13.076782,3.8757324,-5.5236816,0.111083984,0.83251953,0.47338867,0.060424805,-0.049804688,0.06958008,26 
15.182495,4.5776367,-4.3640137,0.11206055,0.8432617,0.4724121,0.056396484,-0.052001953,0.072143555,27 
18.615723,5.279541,-2.6855469,0.11230469,0.85058594,0.4729004,0.056396484,-0.052001953,0.072143555,28 
21.606445,6.5307617,-1.449585,0.111572266,0.8540039,0.47583008,0.056396484,-0.052001953,0.068847656,29 
25.08545,7.5531006,-0.38146973,0.110839844,0.85375977,0.4802246,0.059326172,-0.049072266,0.068847656,30 
27.496338,8.407593,0.2746582,0.11035156,0.8508301,0.48510742,0.059326172,-0.049072266,0.068847656,31 
30.395508,8.81958,0.88500977,0.11010742,0.84594727,0.49121094,0.06225586,-0.05126953,0.06518555,32 
31.661987,9.307861,1.2512207,0.11035156,0.8371582,0.49829102,0.06225586,-0.05126953,0.06518555,33 
32.669067,9.44519,1.1444092,0.111083984,0.826416,0.5058594,0.06225586,-0.05126953,0.06518555,34 
32.24182,9.155273,0.93078613,0.111328125,0.8156738,0.5131836,0.06555176,-0.045410156,0.06665039,35 
30.975342,8.605957,0.091552734,0.111328125,0.8066406,0.5197754,0.06555176,-0.045410156,0.06665039,36 
29.251099,8.850098,-0.77819824,0.111083984,0.7998047,0.5270996,0.057128906,-0.044677734,0.06335449,37 
26.672363,8.407593,-0.9765625,0.111572266,0.79467773,0.5332031,0.057128906,-0.044677734,0.06335449,38 
22.628784,7.461548,-1.7089844,0.11254883,0.7902832,0.5378418,0.057128906,-0.044677734,0.06335449,39 
19.241333,6.286621,-1.8463135,0.11254883,0.78686523,0.5419922,0.056030273,-0.045410156,0.06188965,40 
15.197754,5.050659,-1.7242432,0.11254883,0.78515625,0.545166,0.056030273,-0.045410156,0.06188965,41 
11.581421,4.9438477,-2.39563,0.111816406,0.7866211,0.54785156,0.059692383,-0.044311523,0.064453125,42 
9.552002,4.40979,-2.3651123,0.1105957,0.7902832,0.5500488,0.059692383,-0.044311523,0.064453125,43 
6.92749,3.7384033,-2.0599365,0.110839844,0.7937012,0.55078125,0.059692383,-0.044311523,0.064453125,44 
5.4626465,3.692627,-2.0141602,0.111083984,0.796875,0.54956055,0.06225586,-0.044311523,0.059326172,45 
4.3640137,3.4484863,-1.3122559,0.1105957,0.79907227,0.5473633,0.06225586,-0.044311523,0.059326172,46 
4.2877197,3.5095215,-1.3122559,0.10961914,0.80029297,0.5444336,0.053833008,-0.04321289,0.06225586,47 
5.2490234,0.015258789,-1.3885498,0.107910156,0.8017578,0.5427246,0.053833008,-0.04321289,0.06225586,48 
6.4849854,5.3100586,-1.9683838,0.10644531,0.80444336,0.54174805,0.053833008,-0.04321289,0.06225586,49 
8.636475,5.92041,-2.9449463,0.10595703,0.80688477,0.5407715,0.05456543,-0.044677734,0.06225586,50 
10.20813,7.095337,-3.5247803,0.10644531,0.80810547,0.54003906,0.05456543,-0.044677734,0.06225586,51 
11.474609,8.483887,-3.9672852,0.10668945,0.80859375,0.5407715,0.060058594,-0.048706055,0.06225586,52 
11.962891,9.552002,-4.638672,0.107177734,0.8100586,0.5422363,0.060058594,-0.048706055,0.06225586,53 
13.046265,11.001587,-4.989624,0.10839844,0.810791,0.5432129,0.060058594,-0.048706055,0.06225586,54 
14.144897,10.192871,-5.004883,0.111816406,0.8105469,0.5437012,0.059692383,-0.047607422,0.056396484,55 
14.572144,10.437012,-4.8065186,0.11401367,0.80810547,0.54418945,0.059692383,-0.047607422,0.056396484,56 
14.755249,10.269165,-4.562378,0.115722656,0.8022461,0.54467773,0.053833008,-0.042114258,0.061157227,57 
14.480591,10.406494,-4.1046143,0.1171875,0.79711914,0.54541016,0.053833008,-0.042114258,0.061157227,58 
14.389038,9.399414,-4.5318604,0.12011719,0.7922363,0.5461426,0.053833008,-0.042114258,0.061157227,59 
13.961792,9.613037,-4.2877197,0.1237793,0.7878418,0.546875,0.05493164,-0.04650879,0.06188965,60 
13.320923,9.32312,-3.8757324,0.12719727,0.78271484,0.5463867,0.05493164,-0.04650879,0.06188965,61 
12.10022,8.163452,-4.348755,0.12963867,0.7783203,0.5463867,0.060058594,-0.046875,0.057128906,62 
10.101318,7.9956055,-3.8909912,0.13232422,0.7746582,0.5444336,0.060058594,-0.046875,0.057128906,63 
8.529663,7.7819824,-3.753662,0.13476562,0.77197266,0.5439453,0.060058594,-0.046875,0.057128906,64 
7.8430176,7.080078,-3.463745,0.13671875,0.7714844,0.54296875,0.05895996,-0.046142578,0.060058594,65 
7.3547363,7.461548,-3.2958984,0.13720703,0.77246094,0.5415039,0.05895996,-0.046142578,0.060058594,66 
6.729126,7.2631836,-3.3721924,0.1381836,0.7751465,0.5407715,0.05090332,-0.04284668,0.05859375,67 
6.5460205,6.668091,-3.112793,0.1394043,0.7775879,0.5407715,0.05090332,-0.04284668,0.05859375,68 
6.866455,6.9732666,-2.7618408,0.1394043,0.779541,0.5407715,0.05090332,-0.04284668,0.05859375,69 
7.171631,6.652832,-2.532959,0.13842773,0.7805176,0.54125977,0.052001953,-0.041748047,0.05822754,70 
7.4768066,6.439209,-2.0446777,0.13793945,0.78149414,0.5419922,0.052001953,-0.041748047,0.05822754,71 
7.9345703,6.881714,-1.663208,0.13696289,0.7817383,0.5432129,0.05456543,-0.046142578,0.056030273,72 
8.422852,6.8511963,-1.8920898,0.13623047,0.78100586,0.54541016,0.05456543,-0.046142578,0.056030273,73 
8.956909,6.652832,-1.3580322,0.13574219,0.779541,0.5480957,0.05456543,-0.046142578,0.056030273,74 
8.132935,6.8359375,-1.5869141,0.1352539,0.7792969,0.55200195,0.056030273,-0.045043945,0.057128906,75 
8.361816,7.1258545,-1.2969971,0.13623047,0.779541,0.55566406,0.056030273,-0.045043945,0.057128906,76 
8.666992,7.4920654,-1.2054443,0.13720703,0.77978516,0.55908203,0.05126953,-0.04724121,0.056030273,77 
8.911133,7.3547363,-0.62561035,0.13696289,0.77978516,0.5612793,0.05126953,-0.04724121,0.056030273,78 
8.682251,7.0648193,-0.77819824,0.13769531,0.7780762,0.5637207,0.05126953,-0.04724121,0.056030273,79 
7.9193115,7.2021484,-0.62561035,0.13769531,0.7763672,0.56689453,0.05053711,-0.0435791,0.057128906,80 
7.019043,6.5460205,-0.5340576,0.13867188,0.7741699,0.5686035,0.05053711,-0.0435791,0.057128906,81 
6.0577393,5.859375,-0.7171631,0.14038086,0.77124023,0.5695801,0.056396484,-0.044677734,0.05126953,82 
4.0283203,5.126953,-0.12207031,0.14111328,0.7687988,0.5708008,0.056396484,-0.044677734,0.05126953,83 
2.9449463,4.7302246,0.0,0.14135742,0.7668457,0.57128906,0.056396484,-0.044677734,0.05126953,84 
1.4038086,4.486084,-0.30517578,0.14111328,0.765625,0.57177734,0.053100586,-0.040649414,0.044677734,85 
-0.015258789,3.9978027,-0.21362305,0.140625,0.7651367,0.5720215,0.053100586,-0.040649414,0.044677734,86 
-1.159668,3.829956,0.061035156,0.14086914,0.76660156,0.5722656,0.049438477,-0.041381836,0.052368164,87 
-1.6479492,3.4332275,0.24414062,0.14038086,0.7687988,0.57128906,0.049438477,-0.041381836,0.052368164,88 
-2.7008057,3.2806396,0.5493164,0.14038086,0.77197266,0.5695801,0.049438477,-0.041381836,0.052368164,89 
-2.8839111,2.7618408,1.159668,0.14013672,0.77441406,0.5673828,0.053100586,-0.04650879,0.052734375,90 
-2.3651123,3.2196045,1.3580322,0.13989258,0.77685547,0.56518555,0.053100586,-0.04650879,0.052734375,91 
-1.7852783,2.746582,1.8157959,0.1394043,0.7783203,0.56396484,0.057861328,-0.048706055,0.05419922,92 
-1.2512207,3.2196045,1.7852783,0.1394043,0.7800293,0.5625,0.057861328,-0.048706055,0.05419922,93 
-0.7324219,2.8686523,1.7852783,0.1394043,0.7805176,0.5620117,0.057861328,-0.048706055,0.05419922,94 
0.12207031,3.2806396,2.029419,0.13964844,0.7807617,0.56225586,0.05419922,-0.04321289,0.05090332,95 
0.045776367,3.0517578,1.8615723,0.1394043,0.78027344,0.5637207,0.05419922,-0.04321289,0.05090332,96 
-0.18310547,2.2735596,2.4414062,0.13916016,0.779541,0.5644531,0.049072266,-0.040649414,0.05456543,97 
-0.64086914,2.1820068,2.243042,0.1381836,0.779541,0.5649414,0.049072266,-0.040649414,0.05456543,98 
-1.4190674,1.9378662,2.243042,0.13769531,0.7792969,0.5649414,0.049072266,-0.040649414,0.05456543,99 
-1.8920898,2.3498535,2.3498535,0.13720703,0.77978516,0.5644531,0.052368164,-0.04321289,0.05419922,100 
-2.7770996,1.7700195,2.4414062,0.13769531,0.779541,0.564209,0.052368164,-0.04321289,0.05419922,101 
-3.3874512,1.7547607,2.7313232,0.13769531,0.7800293,0.56274414,0.05822754,-0.044677734,0.053833008,102 
-4.2266846,1.0681152,2.6397705,0.13720703,0.7792969,0.560791,0.05822754,-0.044677734,0.053833008,103 
-4.2266846,1.1444092,3.2348633,0.13647461,0.779541,0.5593262,0.05822754,-0.044677734,0.053833008,104 
-4.211426,1.4038086,3.0822754,0.13500977,0.78100586,0.5578613,0.05529785,-0.041381836,0.048706055,105 
-4.211426,1.663208,3.0212402,0.13500977,0.782959,0.5566406,0.05529785,-0.041381836,0.048706055,106 
-4.0130615,1.1749268,3.2958984,0.13452148,0.78393555,0.55493164,0.053833008,-0.041381836,0.048339844,107 
-3.3721924,1.3122559,3.4332275,0.13330078,0.78564453,0.55444336,0.053833008,-0.041381836,0.048339844,108 
-2.7313232,1.5563965,3.8909912,0.13134766,0.78759766,0.5541992,0.053833008,-0.041381836,0.048339844,109 
-2.4719238,1.373291,3.829956,0.12988281,0.7902832,0.5546875,0.05419922,-0.044677734,0.056762695,110 
-1.663208,1.5258789,3.7231445,0.12939453,0.7927246,0.5551758,0.05419922,-0.044677734,0.056762695,111 
-1.9073486,0.88500977,3.9672852,0.12792969,0.79418945,0.5559082,0.05419922,-0.045043945,0.05859375,112 
-1.5869141,0.39672852,4.2266846,0.12670898,0.7956543,0.5571289,0.057495117,-0.045043945,0.05859375,113 
-1.0375977,0.7324219,4.5776367,0.1262207,0.795166,0.5576172,0.057495117,-0.045043945,0.05859375,114 
-1.9073486,0.44250488,4.272461,0.125,0.7939453,0.5578613,0.057861328,-0.041748047,0.052368164,115 
-2.5177002,1.3427734,3.6315918,0.1237793,0.79345703,0.5583496,0.057861328,-0.041748047,0.052368164,116 
-2.8686523,1.7852783,2.9449463,0.12207031,0.79467773,0.5593262,0.057861328,-0.041748047,0.05419922,117 
-3.0517578,1.9226074,2.3498535,0.12109375,0.79663086,0.55981445,0.05529785,-0.04284668,0.05419922,118 
-2.4719238,1.8463135,2.3040771,0.12036133,0.79833984,0.5593262,0.05529785,-0.04284668,0.05419922,119 
-1.663208,2.1514893,1.8310547,0.118652344,0.79907227,0.5595703,0.056762695,-0.044311523,0.056030273,120 
0.6561279,1.7242432,1.6021729,0.11791992,0.80126953,0.56030273,0.056762695,-0.044311523,0.056030273,121 
1.7700195,1.663208,1.3122559,0.11694336,0.8041992,0.56225586,0.056762695,-0.044311523,0.057495117,122 
2.960205,2.1972656,1.2817383,0.11669922,0.8066406,0.5632324,0.05895996,-0.041381836,0.057495117,123 
3.0517578,1.6174316,1.3275146,0.1184082,0.80810547,0.56347656,0.05895996,-0.041381836,0.057495117,124 
3.3416748,1.2664795,1.7242432,0.11987305,0.8078613,0.5629883,0.05493164,-0.041381836,0.05529785,125 
3.463745,1.4953613,1.6479492,0.12036133,0.80737305,0.56152344,0.05493164,-0.041381836,0.05529785,126 
3.1280518,1.5716553,1.4953613,0.119384766,0.8051758,0.5595703,0.05493164,-0.041381836,0.05529785,127 
3.5705566,0.91552734,1.0223389,0.1184082,0.80322266,0.5576172,0.05053711,-0.040649414,0.055664062,128 
4.348755,1.2664795,0.4272461,0.11767578,0.80029297,0.55615234,0.05053711,-0.040649414,0.055664062,129 
5.493164,2.5787354,-0.6866455,0.11645508,0.79956055,0.5551758,0.05529785,-0.04284668,0.056030273,130 
6.92749,2.4871826,-1.953125,0.11694336,0.8000488,0.5539551,0.05529785,-0.04284668,0.056030273,131 
7.888794,2.9754639,-2.8533936,0.119140625,0.79785156,0.5515137,0.05529785,-0.04284668,0.056030273,132 
8.255005,3.0670166,-3.6468506,0.12109375,0.7949219,0.5493164,0.059692383,-0.046142578,0.055664062,133 
9.231567,2.960205,-4.058838,0.122802734,0.7922363,0.5456543,0.059692383,-0.046142578,0.055664062,134 
10.08606,3.2958984,-3.4179688,0.123291016,0.79003906,0.5427246,0.055664062,-0.041748047,0.05822754,135 
10.650635,3.5247803,-3.768921,0.1237793,0.7878418,0.5415039,0.055664062,-0.041748047,0.05822754,136 
12.054443,3.0212402,-3.8909912,0.12402344,0.7854004,0.54248047,0.055664062,-0.041748047,0.05822754,137 
13.244629,7.7209473,-3.6468506,0.12402344,0.7849121,0.5439453,0.052734375,-0.040283203,0.052734375,138 
13.534546,4.7454834,-3.982544,0.1237793,0.7849121,0.546875,0.052734375,-0.040283203,0.052734375,139 
13.198853,4.9438477,-3.8146973,0.12402344,0.78393555,0.54956055,0.05529785,-0.043945312,0.05419922,140 
12.710571,5.5389404,-3.6773682,0.12524414,0.78271484,0.55249023,0.05529785,-0.043945312,0.05419922,141 
11.474609,5.6152344,-7.7056885,0.1262207,0.7805176,0.5541992,0.05529785,-0.043945312,0.05419922,142 
9.82666,5.92041,-3.5247803,0.12597656,0.7775879,0.55615234,0.05895996,-0.04321289,0.05053711,143 
8.865356,6.30188,-3.7384033,0.12573242,0.77612305,0.5566406,0.05895996,-0.04321289,0.05053711,144 
8.529663,6.942749,-4.501343,0.12646484,0.7741699,0.5578613,0.052734375,-0.040649414,0.053100586,145 
8.132935,6.744385,-4.776001,0.12719727,0.7727051,0.5583496,0.052734375,-0.040649414,0.053100586,146 
9.155273,7.1868896,-5.3863525,0.12646484,0.77319336,0.5588379,0.052734375,-0.040649414,0.053100586,147 
10.421753,7.827759,-6.1798096,0.12646484,0.7746582,0.56030273,0.053466797,-0.041748047,0.049438477,148 
12.191772,8.804321,-7.2631836,0.12548828,0.77783203,0.5625,0.053466797,-0.041748047,0.049438477,149 
14.266968,9.872437,-7.8430176,0.12451172,0.78125,0.56689453,0.05456543,-0.04248047,0.046875,150 
16.036987,10.223389,-8.346558,0.123535156,0.7841797,0.57250977,0.05456543,-0.04248047,0.046875,151 
17.501831,10.879517,-8.483887,0.12402344,0.78759766,0.5776367,0.05456543,-0.04248047,0.046875,152 
18.26477,11.627197,-8.102417,0.12646484,0.78930664,0.5817871,0.05456543,-0.041748047,0.046142578,153 
18.737793,10.955811,-7.9803467,0.12963867,0.78759766,0.5859375,0.05456543,-0.041748047,0.046142578,154 
17.913818,9.811401,-6.9732666,0.13305664,0.78222656,0.58740234,0.049438477,-0.039916992,0.047607422,155 
16.174316,8.590698,-5.92041,0.13623047,0.77368164,0.5883789,0.049438477,-0.039916992,0.047607422,156 
14.282227,8.331299,-5.4473877,0.13989258,0.7648926,0.5888672,0.049438477,-0.039916992,0.047607422,157 
12.619019,7.1258545,-5.874634,0.14233398,0.7583008,0.5917969,0.048339844,-0.040649414,0.045043945,158 
12.22229,6.3323975,-6.088257,0.14428711,0.75268555,0.59594727,0.048339844,-0.040649414,0.045043945,159 
10.482788,5.79834,-6.652832,0.14550781,0.748291,0.5991211,0.053100586,-0.041381836,0.046875,160 
8.956909,5.844116,-7.827759,0.14477539,0.74731445,0.6008301,0.053100586,-0.041381836,0.046875,161 
8.69751,6.5460205,-9.338379,0.14331055,0.7519531,0.6022949,0.053100586,-0.041381836,0.046875,162 
8.392334,6.5460205,-9.94873,0.14233398,0.76049805,0.60424805,0.048339844,-0.039916992,0.045043945,163 
9.124756,6.0577393,-10.940552,0.1394043,0.7705078,0.6069336,0.048339844,-0.039916992,0.045043945,164 
8.728027,6.1798096,-12.832642,0.13549805,0.7807617,0.6101074,0.04650879,-0.03918457,0.045776367,165 
8.560181,6.5307617,-15.914917,0.13183594,0.78637695,0.61035156,0.04650879,-0.03918457,0.045776367,166 
8.651733,7.232666,-18.981934,0.12768555,0.7890625,0.60717773,0.04650879,-0.03918457,0.045776367,167 
9.063721,8.285522,-21.942139,0.122558594,0.7854004,0.6040039,0.044677734,-0.036254883,0.04248047,168 
9.735107,8.071899,-25.848389,0.11816406,0.7800293,0.5969238,0.044677734,-0.036254883,0.04248047,169 
11.611938,13.931274,-29.953003,0.12011719,0.7751465,0.5810547,0.045776367,-0.040649414,0.046142578,170 
16.662598,14.587402,-33.187866,0.12646484,0.77905273,0.57128906,0.045776367,-0.040649414,0.046142578,171 
19.851685,15.792847,-33.813477,0.1352539,0.79125977,0.5703125,0.045776367,-0.040649414,0.046142578,172 
24.047852,18.035889,-31.204224,0.14575195,0.79467773,0.5720215,0.043945312,-0.03918457,0.04321289,173 
29.47998,18.78357,-29.09851,0.15844727,0.78149414,0.5749512,0.043945312,-0.03918457,0.04321289,174 
29.006958,17.410278,-27.252197,0.16894531,0.76000977,0.5786133,0.036621094,-0.036621094,0.040649414,175 
26.70288,15.762329,-26.550293,0.17797852,0.7441406,0.57910156,0.036621094,-0.036621094,0.040649414,176 
24.642944,14.343262,-24.856567,0.18823242,0.736084,0.5805664,0.036621094,-0.036621094,0.040649414,177 
23.07129,13.168335,-22.491455,0.1965332,0.73217773,0.58203125,0.036621094,-0.03881836,0.03955078,178 
21.133423,13.092041,-20.78247,0.20336914,0.73095703,0.5817871,0.036621094,-0.03881836,0.03955078,179 
19.470215,13.336182,-17.715454,0.20776367,0.7314453,0.5817871,0.041748047,-0.041748047,0.03845215,180 
19.302368,13.748169,-15.106201,0.21191406,0.73657227,0.579834,0.041748047,-0.041748047,0.03845215,181 
19.958496,13.473511,-12.191772,0.21484375,0.7421875,0.5751953,0.041748047,-0.041748047,0.03845215,182 
20.080566,13.183594,-8.895874,0.21655273,0.7429199,0.5715332,0.037353516,-0.034057617,0.034423828,183 
19.714355,11.871338,-7.080078,0.21289062,0.7348633,0.5720215,0.037353516,-0.034057617,0.034423828,184 
19.91272,12.6953125,-7.095337,0.20605469,0.7241211,0.57714844,0.032958984,-0.03515625,0.032592773,185 
19.53125,14.11438,-8.31604,0.20019531,0.71533203,0.5852051,0.032958984,-0.03515625,0.032592773,186 
20.339966,14.770508,-10.070801,0.19604492,0.7126465,0.5930176,0.032958984,-0.03515625,0.032592773,187 
21.865845,14.923096,-12.374878,0.19311523,0.71362305,0.60131836,0.034423828,-0.036621094,0.034057617,188 
24.749756,16.937256,-14.251709,0.18798828,0.72021484,0.6105957,0.034423828,-0.036621094,0.034057617,189 
28.244019,19.02771,-16.601562,0.18310547,0.7297363,0.6220703,0.03552246,-0.038085938,0.03479004,190 
31.738281,21.209717,-18.737793,0.1809082,0.73876953,0.6320801,0.03552246,-0.038085938,0.03479004,191 
34.332275,23.147583,-20.248413,0.1809082,0.7463379,0.63916016,0.03552246,-0.038085938,0.03479004,192 
36.361694,25.894165,-20.370483,0.18286133,0.75,0.6430664,0.03186035,-0.032226562,0.030029297,193 
37.109375,26.565552,-20.202637,0.18676758,0.74658203,0.6435547,0.03186035,-0.032226562,0.030029297,194 
38.391113,27.297974,-19.744873,0.19189453,0.7390137,0.6437988,0.026000977,-0.032226562,0.025268555,195 
40.740967,28.701782,-19.058228,0.19750977,0.72998047,0.6467285,0.026000977,-0.032226562,0.025268555,196 
44.296265,29.86145,-18.447876,0.20532227,0.7224121,0.6513672,0.026000977,-0.032226562,0.025268555,197 
46.3562,30.288696,-17.77649,0.21606445,0.7150879,0.6557617,0.025634766,-0.034423828,0.024536133,198 
47.51587,28.503418,-16.586304,0.2290039,0.7036133,0.6599121,0.025634766,-0.034423828,0.024536133,199 
45.684814,25.32959,-15.380859,0.24194336,0.68896484,0.6623535,0.025634766,-0.029663086,0.020507812,200 
40.863037,21.66748,-12.756348,0.25073242,0.6713867,0.6652832,0.026367188,-0.029663086,0.020507812,201 
34.5459,18.188477,-11.352539,0.25732422,0.6525879,0.6669922,0.026367188,-0.029663086,0.020507812,202 
28.59497,13.931274,-10.08606,0.2619629,0.6411133,0.66845703,0.01977539,-0.030029297,0.017944336,203 
21.92688,12.039185,-8.911133,0.26342773,0.6364746,0.66918945,0.01977539,-0.030029297,0.017944336,204 
19.39392,9.918213,-8.19397,0.26416016,0.63671875,0.6713867,0.01977539,-0.026000977,0.019042969,205 
10.3302,8.087158,-7.6293945,0.26416016,0.6401367,0.67285156,0.021606445,-0.026000977,0.019042969,206 
6.088257,6.0272217,-7.2784424,0.26391602,0.6459961,0.67407227,0.021606445,-0.026000977,0.019042969,207 
3.2196045,3.5858154,-7.4310303,0.2619629,0.65405273,0.67407227,0.019042969,-0.032226562,0.015014648,208 
1.3427734,4.058838,-8.102417,0.2565918,0.6645508,0.673584,0.019042969,-0.032226562,0.015014648,209 
1.3580322,5.6762695,-9.3688965,0.25073242,0.67700195,0.67089844,0.019042969,-0.032226562,0.015014648,210 
1.8310547,7.4920654,-10.528564,0.24584961,0.68652344,0.66552734,0.021972656,-0.030761719,0.013549805,211 
3.189087,8.575439,-11.428833,0.24365234,0.69311523,0.657959,0.021972656,-0.030761719,0.013549805,212 
5.3863525,9.20105,-11.886597,0.23999023,0.6965332,0.6520996,0.018310547,-0.028930664,0.015014648,213 
8.911133,11.749268,-12.60376,0.23632812,0.69750977,0.6477051,0.018310547,-0.028930664,0.015014648,214 
12.756348,14.511108,-13.320923,0.23388672,0.69799805,0.6447754,0.018310547,-0.028930664,0.015014648,215 
17.01355,16.815186,-13.85498,0.23364258,0.6970215,0.6442871,0.016479492,-0.027832031,0.018310547,216 
20.706177,19.195557,-14.312744,0.2355957,0.69384766,0.64501953,0.016479492,-0.027832031,0.018310547,217 
23.101807,19.927979,-14.175415,0.2397461,0.7495117,0.6455078,0.018310547,-0.029663086,0.019042969,218 
24.230957,20.401001,-14.3585205,0.24511719,0.67944336,0.6467285,0.018310547,-0.029663086,0.019042969,219 
23.986816,20.889282,-13.977051,0.2512207,0.6706543,0.6477051,0.018310547,-0.029663086,0.019042969,220 
22.93396,19.53125,-13.198853,0.25610352,0.66259766,0.64990234,0.017578125,-0.026367188,0.010253906,221 
21.392822,19.561768,-12.969971,0.26245117,0.6555176,0.65185547,0.017578125,-0.026367188,0.010253906,222 
19.28711,18.325806,-11.688232,0.2692871,0.64990234,0.6538086,0.01171875,-0.024536133,0.008422852,223 
17.700195,16.357422,-10.7421875,0.27514648,0.64746094,0.6567383,0.01171875,-0.024536133,0.008422852,224 
16.036987,14.9383545,-9.674072,0.2800293,0.64575195,0.6604004,0.01171875,-0.024536133,0.008422852,225 
14.907837,12.374878,-7.7056885,0.2841797,0.6452637,0.6647949,0.011352539,-0.026367188,0.010986328,226 
11.993408,11.062622,-6.286621,0.28686523,0.6437988,0.6669922,0.011352539,-0.026367188,0.010986328,227 
9.506226,8.758545,-5.004883,0.2878418,0.6418457,0.6694336,0.012451172,-0.02746582,0.004760742,228 
6.134033,7.171631,-3.7231445,0.28735352,0.6413574,0.67163086,0.012451172,-0.02746582,0.004760742,229 
3.3721924,6.5307617,-2.7923584,0.28588867,0.64160156,0.67333984,0.012451172,-0.02746582,0.004760742,230 
1.6479492,5.8135986,-1.953125,0.28393555,0.6425781,0.6748047,0.013183594,-0.022338867,0.009155273,231 
0.2746582,5.41687,-1.9836426,0.28198242,0.6447754,0.67529297,0.013183594,-0.022338867,0.009155273,232 
-0.16784668,5.4779053,-1.5563965,0.2800293,0.64746094,0.6750488,0.006225586,-0.02746582,0.009521484,233 
-0.33569336,6.6223145,-1.8615723,0.27685547,0.6491699,0.67333984,0.006225586,-0.02746582,0.009521484,234 
0.21362305,6.3934326,-2.2583008,0.27392578,0.6503906,0.6706543,0.006225586,-0.02746582,0.009521484,235 
0.8544922,6.8969727,-2.7008057,0.2709961,0.6508789,0.6689453,0.0073242188,-0.024902344,0.008056641,236 
2.5634766,8.361816,-2.9449463,0.26733398,0.65112305,0.6689453,0.0073242188,-0.024902344,0.008056641,237 
4.196167,9.735107,-3.5705566,0.26538086,0.65185547,0.6689453,0.011352539,-0.02709961,0.0076904297,238 
5.5236816,10.757446,-4.40979,0.26464844,0.6530762,0.6694336,0.011352539,-0.02709961,0.0076904297,239 
6.42395,11.550903,-4.196167,0.26538086,0.6542969,0.6699219,0.011352539,-0.02709961,0.0076904297,240 
7.7056885,12.237549,-3.8757324,0.26733398,0.65283203,0.67041016,0.01171875,-0.025634766,0.005859375,241 
7.9956055,12.34436,-3.189087,0.26953125,0.6516113,0.67089844,0.01171875,-0.025634766,0.005859375,242 
8.804321,13.320923,-3.2196045,0.27124023,0.64941406,0.67163086,0.009155273,-0.0234375,0.0043945312,243 
8.560181,13.656616,-2.8381348,0.27294922,0.64697266,0.67333984,0.009155273,-0.0234375,0.0043945312,244 
8.972168,14.801025,-3.0059814,0.27490234,0.6442871,0.6765137,0.009155273,-0.0234375,0.0043945312,245 
9.567261,14.587402,-3.0670166,0.2783203,0.64208984,0.6801758,0.005126953,-0.025634766,0.006591797,246 
10.147095,13.595581,-3.5095215,0.2824707,0.6425781,0.6850586,0.005126953,-0.025634766,0.006591797,247 
10.101318,14.144897,-2.89917,0.2854004,0.64404297,0.68969727,0.01171875,-0.028198242,0.0007324219,248 
10.71167,13.748169,-3.0822754,0.2890625,0.64575195,0.6936035,0.01171875,-0.028198242,0.0007324219,249 
10.879517,12.527466,-2.5024414,0.29223633,0.64746094,0.6970215,0.01171875,-0.028198242,0.0007324219,250 
9.185791,11.657715,-1.6021729,0.29589844,0.64746094,0.6972656,0.009155273,-0.024169922,0.0036621094,251 
6.744385,10.025024,-0.9613037,0.3005371,0.64501953,0.69799805,0.009155273,-0.024169922,0.0036621094,252 
2.8533936,7.7667236,0.10681152,0.30297852,0.63964844,0.6958008,-0.0010986328,-0.024536133,-0.0007324219,253 
-0.15258789,6.6986084,0.9613037,0.30371094,0.63256836,0.6911621,-0.0010986328,-0.024536133,-0.0007324219,254 
-3.3569336,5.3100586,0.88500977,0.30419922,0.626709,0.685791,-0.0010986328,-0.024536133,-0.0007324219,255 
-5.41687,4.8828125,0.35095215,0.30297852,0.62475586,0.68115234,0.0036621094,-0.024536133,0.0021972656,0 
-7.0343018,5.645752,-0.38146973,0.3017578,0.62524414,0.67700195,0.0036621094,-0.024536133,0.0021972656,1 
-8.010864,5.4626465,-0.9918213,0.30126953,0.6279297,0.67285156,0.009155273,-0.02709961,0.006225586,2 
-7.873535,4.5166016,-1.4038086,0.3017578,0.63378906,0.6687012,0.009155273,-0.02709961,0.006225586,3 
-7.7209473,3.6773682,-1.2664795,0.3010254,0.638916,0.6645508,0.009155273,-0.02709961,0.006225586,4 
-6.8969727,4.1503906,-1.4953613,0.29907227,0.64404297,0.66015625,0.0087890625,-0.023803711,0.0032958984,5 
-5.9661865,4.3182373,-1.3580322,0.29785156,0.64819336,0.65649414,0.0087890625,-0.023803711,0.0032958984,6 
-4.501343,4.623413,-1.5869141,0.29614258,0.6525879,0.65356445,0.006958008,-0.021972656,0.004760742,7 
-2.6245117,4.8675537,-1.6937256,0.2956543,0.6555176,0.65234375,0.006958008,-0.021972656,0.004760742,8 
-0.5950928,6.164551,-1.5716553,0.29492188,0.6567383,0.6530762,0.006958008,-0.021972656,0.004760742,9 
1.6174316,6.80542,-2.2888184,0.29467773,0.65649414,0.654541,0.006591797,-0.022338867,0.0076904297,10 
2.0599365,7.003784,-2.1972656,0.29492188,0.65527344,0.65625,0.006591797,-0.022338867,0.0076904297,11 
2.8686523,7.385254,-2.105713,0.29541016,0.6530762,0.657959,0.0087890625,-0.0234375,0.0073242188,12 
3.2196045,7.8582764,-2.3345947,0.29663086,0.6508789,0.6608887,0.0087890625,-0.0234375,0.0073242188,13 
3.5095215,7.0648193,-2.5634766,0.2980957,0.64941406,0.66259766,0.0087890625,-0.0234375,0.0073242188,14 
3.463745,6.652832,-2.6550293,0.29882812,0.64941406,0.6657715,0.0025634766,-0.021240234,0.0073242188,15 
3.2196045,6.591797,-2.6245117,0.29907227,0.6491699,0.6706543,0.0025634766,-0.021240234,0.0073242188,16 
2.7160645,5.9814453,-2.39563,0.30029297,0.6489258,0.67285156,0.0040283203,-0.021240234,0.0040283203,17 
1.3275146,4.4403076,-1.8310547,0.3034668,0.6477051,0.6743164,0.0040283203,-0.021240234,0.0040283203,18 
0.10681152,2.2277832,-0.9460449,0.3059082,0.6447754,0.6750488,0.0040283203,-0.021240234,0.0040283203,19 
-1.083374,0.93078613,-0.22888184,0.30615234,0.64331055,0.67529297,0.0010986328,-0.026733398,0.008056641,20 
-1.1291504,-0.076293945,0.47302246,0.3046875,0.6430664,0.67407227,0.0010986328,-0.026733398,0.008056641,21 
-1.1444092,-0.5340576,1.1749268,0.30200195,0.6442871,0.6738281,0.005493164,-0.02746582,0.006225586,22 
-0.90026855,0.39672852,1.1749268,0.30029297,0.64575195,0.67529297,0.005493164,-0.02746582,0.006225586,23 
-0.8087158,-1.0070801,1.5869141,0.29907227,0.6464844,0.6760254,0.005493164,-0.02746582,0.006225586,24 
-0.9613037,-1.8310547,2.1820068,0.29882812,0.6472168,0.67529297,0.0029296875,-0.024536133,0.005493164,25 
-0.93078613,-2.105713,2.7770996,0.29711914,0.64746094,0.6730957,0.0029296875,-0.024536133,0.005493164,26 
-1.2969971,-2.1820068,2.7008057,0.29492188,0.6477051,0.67211914,0.091552734,-0.025634766,0.005493164,27 
-0.48828125,-1.2512207,2.6245117,0.29174805,0.64697266,0.6713867,-0.0021972656,-0.025634766,0.005493164,28 
-0.1373291,-0.21362305,2.6550293,0.28857422,0.6472168,0.671875,-0.0021972656,-0.025634766,0.005493164,29 
0.9613037,0.6713867,1.8615723,0.28686523,0.6477051,0.67333984,0.005493164,-0.026367188,0.004760742,30 
1.5716553,1.4190674,0.9613037,0.28564453,0.6489258,0.67529297,0.005493164,-0.026367188,0.004760742,31 
1.5869141,2.4261475,0.45776367,0.2854004,0.6501465,0.67822266,0.005493164,-0.026367188,0.010253906,32 
1.5869141,3.1280518,0.061035156,0.2849121,0.65112305,0.68066406,0.004760742,-0.026367188,0.010253906,33 
1.8310547,3.6621094,-0.22888184,0.28393555,0.65185547,0.6816406,0.004760742,-0.026367188,0.010253906,34 
0.9765625,4.2419434,-0.6713867,0.28393555,0.65112305,0.68115234,0.0018310547,-0.024536133,0.00036621094,35 
0.2746582,4.928589,-0.47302246,0.28393555,0.64868164,0.67944336,0.0018310547,-0.024536133,0.00036621094,36 
-0.18310547,5.203247,-1.0375977,0.2849121,0.6459961,0.6765137,0.0018310547,-0.024536133,0.09118652,37 
-0.38146973,5.9509277,-1.6784668,0.2866211,0.6442871,0.67407227,-0.00036621094,-0.022705078,-0.0025634766,38 
-0.36621094,6.8969727,-1.8463135,0.28857422,0.6430664,0.6723633,-0.00036621094,-0.022705078,-0.0025634766,39 
-0.1373291,7.369995,-2.456665,0.29125977,0.6430664,0.6711426,-0.0014648438,-0.027832031,0.004760742,40 
0.2593994,7.019043,-2.89917,0.2932129,0.64331055,0.670166,-0.0014648438,-0.027832031,0.004760742,41 
0.12207031,6.881714,-2.7923584,0.2956543,0.6447754,0.66845703,-0.0014648438,-0.027832031,0.004760742,42 
0.30517578,6.2561035,-2.456665,0.29736328,0.6467285,0.66748047,0.0076904297,-0.026733398,0.004760742,43 
0.19836426,6.4849854,-1.9989014,0.2980957,0.6489258,0.6669922,0.0076904297,-0.026733398,0.004760742,44 
-3.8604736,6.0424805,-1.0681152,0.29858398,0.6508789,0.6665039,-0.0029296875,-0.024902344,0.009155273,45 
-0.5340576,5.645752,-0.869751,0.29833984,0.6516113,0.66625977,-0.0029296875,-0.024902344,0.009155273,46 
-0.091552734,5.1116943,-0.2593994,0.29882812,0.6513672,0.66625977,-0.0029296875,-0.024902344,0.009155273,47 
-0.21362305,5.3710938,0.076293945,0.29858398,0.6508789,0.6665039,0.0032958984,-0.025268555,-0.0014648438,48 
-0.289917,5.2337646,-0.12207031,0.29907227,0.64941406,0.66552734,0.0032958984,-0.025268555,-0.0014648438,49 
-0.7019043,5.3710938,0.030517578,0.29882812,0.64697266,0.66381836,0.005493164,-0.02709961,0.0032958984,50 
-1.5716553,5.340576,-0.2593994,0.29882812,0.6452637,0.66259766,0.005493164,-0.02709961,0.0032958984,51 
-1.4038086,5.569458,-0.33569336,0.29833984,0.64501953,0.66137695,0.005493164,-0.02709961,0.0032958984,52 
-1.6021729,5.355835,-0.15258789,0.29736328,0.6452637,0.6616211,0.009887695,-0.026733398,-0.0032958984,53 
-0.6713867,5.493164,-0.4272461,0.29589844,0.6464844,0.6621094,0.009887695,-0.026733398,-0.0032958984,54 
-0.2746582,5.1879883,-0.91552734,0.29492188,0.64819336,0.6640625,0.0025634766,-0.0234375,0.00036621094,55 
0.7324219,5.569458,-0.869751,0.29516602,0.6503906,0.6660156,0.0025634766,-0.0234375,0.00036621094,56 
0.30517578,5.264282,-0.7324219,0.29638672,0.65185547,0.6672363,0.0025634766,-0.0234375,0.00036621094,57 
1.7700195,4.974365,-0.21362305,0.29785156,0.6525879,0.66748047,-0.0014648438,-0.020507812,-0.0007324219,58 
1.9226074,4.1046143,0.47302246,0.29907227,0.65185547,0.66748047,-0.0014648438,-0.020507812,-0.0007324219,59 
2.243042,4.3792725,0.9460449,0.2998047,0.6516113,0.6694336,0.0029296875,-0.026733398,-0.0029296875,60 
3.4942627,4.3182373,0.4272461,0.29956055,0.6508789,0.67285156,0.0029296875,-0.026733398,-0.0029296875,61 
3.3874512,4.79126,0.35095215,0.30004883,0.6520996,0.67626953,0.0029296875,-0.026733398,-0.0029296875,62 
3.9367676,4.3792725,0.045776367,0.3017578,0.6525879,0.6791992,0.006225586,-0.024169922,0.006225586,63 
2.6550293,3.5552979,0.7019043,0.30371094,0.65112305,0.6801758,0.006225586,-0.024169922,0.006225586,64 
0.8392334,2.1820068,1.1291504,0.30444336,0.6459961,0.6801758,-0.0010986328,-0.024536133,0.0007324219,65 
-1.7852783,1.5869141,1.2512207,0.3034668,0.6398926,0.6791992,-0.0010986328,-0.024536133,0.0007324219,66 
-3.1433105,1.4801025,1.3885498,0.3017578,0.63793945,0.6772461,-0.0010986328,-0.024536133,0.0007324219,67 
-3.6468506,1.4038086,0.93078613,0.3005371,0.63916016,0.6748047,-0.0021972656,-0.024536133,0.0032958984,68 
-3.6773682,1.6021729,0.6713867,0.2998047,0.64038086,0.6726074,-0.0021972656,-0.024536133,0.0032958984,69 
-4.3029785,1.2664795,0.045776367,0.29956055,0.64208984,0.67041016,0.0040283203,-0.026367188,0.00036621094,70 
-4.1656494,1.449585,-0.19836426,0.29833984,0.6437988,0.6682129,0.0040283203,-0.026367188,0.00036621094,71 
-3.4179688,1.1291504,-0.19836426,0.29785156,0.64501953,0.6652832,0.0040283203,-0.026367188,0.00036621094,72 
-3.479004,1.5563965,-0.50354004,0.29589844,0.64746094,0.66381836,0.0029296875,-0.026000977,0.005126953,73 
-2.2888184,2.3651123,-0.2593994,0.2956543,0.64990234,0.6616211,0.0029296875,-0.026000977,0.005126953,74 
-1.3427734,2.9144287,-0.16784668,0.29614258,0.6525879,0.6604004,-0.0032958984,-0.024536133,0.0018310547,75 
-0.76293945,3.8757324,-0.4119873,0.29541016,0.65478516,0.6616211,-0.0032958984,-0.024536133,0.0018310547,76 
0.47302246,4.40979,-0.289917,0.29663086,0.65527344,0.6616211,-0.0032958984,-0.024536133,0.0018310547,77 
1.3580322,4.257202,-0.44250488,0.29760742,0.6557617,0.6635742,-0.0014648438,-0.026000977,0.006225586,78 
1.6479492,4.470825,-0.21362305,0.29882812,0.65600586,0.66430664,-0.0014648438,-0.026000977,0.006225586,79 
1.6937256,4.3182373,-0.48828125,0.29907227,0.6550293,0.6657715,0.0036621094,-0.025268555,0.0040283203,80 
1.8463135,3.7078857,-0.045776367,0.29858398,0.65405273,0.66748047,0.0036621094,-0.025268555,0.0040283203,81 
1.4801025,3.7384033,0.32043457,0.29833984,0.6533203,0.66748047,0.0036621094,-0.025268555,0.0040283203,82 
1.0223389,2.9449463,0.7171631,0.29858398,0.6525879,0.66845703,0.005493164,-0.023803711,0.004760742,83 
0.88500977,2.029419,0.869751,0.29882812,0.65185547,0.6694336,0.005493164,-0.023803711,0.004760742,84 
0.2593994,1.3427734,0.9918213,0.2980957,0.6489258,0.67089844,-0.0018310547,-0.025634766,0.008056641,85 
-0.74768066,0.93078613,0.39672852,0.29711914,0.6472168,0.6726074,-0.0018310547,-0.025634766,0.008056641,86 
-2.105713,-0.91552734,-0.33569336,0.2956543,0.6464844,0.67089844,-0.0018310547,-0.025634766,0.008056641,87 
-2.319336,-0.030517578,-1.3275146,0.2927246,0.64501953,0.66918945,0.0032958984,-0.023803711,0.00036621094,88 
-3.0059814,0.061035156,-2.029419,0.28955078,0.64208984,0.6682129,0.0032958984,-0.023803711,0.00036621094,89 
-3.479004,1.6479492,-3.1280518,0.28833008,0.6401367,0.66845703,0.005859375,-0.026733398,0.005126953,90 
-4.638672,2.1972656,-3.3569336,0.28930664,0.64038086,0.6682129,0.005859375,-0.026733398,0.005126953,91 
-4.6691895,2.090454,-3.2348633,0.2915039,0.64453125,0.6665039,0.005859375,-0.026733398,0.005126953,92 
-4.0893555,2.6245117,-3.2196045,0.29418945,0.64941406,0.66503906,0.005859375,-0.025634766,0.0025634766,93 
-3.2653809,2.4108887,-2.456665,0.2956543,0.65234375,0.6640625,0.005859375,-0.025634766,0.0025634766,94 
-1.7852783,3.7078857,-1.7242432,0.29711914,0.65625,0.6640625,0.0018310547,-0.022705078,0.0021972656,95 
-0.44250488,3.8909912,-1.1901855,0.2998047,0.6599121,0.6645508,0.0018310547,-0.022705078,0.0021972656,96 
1.1444092,3.7384033,-0.15258789,0.3022461,0.66259766,0.66430664,0.0018310547,-0.022705078,0.0021972656,97 
1.5106201,4.1503906,0.44250488,0.30297852,0.66259766,0.6640625,0.0007324219,-0.026733398,0.005126953,98 
1.4953613,3.6773682,1.3885498,0.30395508,0.6591797,0.6645508,0.0007324219,-0.026733398,0.005126953,99 
1.6784668,2.9449463,2.1209717,0.30419922,0.65527344,0.6652832,0.0040283203,-0.028564453,0.005493164,100 
0.91552734,3.616333,2.3040771,0.30273438,0.65112305,0.6665039,0.0040283203,-0.028564453,0.005493164,101 
0.38146973,3.1585693,2.4261475,0.3010254,0.64868164,0.66796875,0.0040283203,-0.028564453,0.005493164,102 
0.61035156,3.616333,1.8005371,0.30029297,0.6477051,0.670166,0.0043945312,-0.024169922,0.0,103 
0.16784668,3.982544,1.4038086,0.29858398,0.64868164,0.6726074,0.0043945312,-0.024169922,0.0,104 
-0.9460449,2.9296875,0.7324219,0.29711914,0.6489258,0.67285156,-0.0043945312,-0.024902344,0.006958008,105 
-1.6326904,3.463745,0.7324219,0.2956543,0.6489258,0.67089844,-0.0043945312,-0.024902344,0.006958008,106 
-2.2125244,3.4942627,0.36621094,0.2939453,0.64990234,0.6687012,-0.0043945312,-0.024902344,0.006958008,107 
-2.532959,3.3416748,-0.15258789,0.2927246,0.6508789,0.6665039,-0.00036621094,-0.026733398,0.005859375,108 
-2.2888184,4.7454834,-0.7019043,0.2927246,0.6520996,0.6652832,-0.00036621094,-0.026733398,0.005859375,109 
-1.663208,5.4473877,-0.77819824,0.2939453,0.65405273,0.6652832,0.005126953,-0.025268555,0.0040283203,110 
-0.88500977,5.5999756,-1.083374,0.29541016,0.65649414,0.66552734,0.005126953,-0.025268555,0.0040283203,111 
-0.091552734,6.378174,-1.2512207,0.29638672,0.65722656,0.66503906,0.005126953,-0.025268555,0.0040283203,112 
1.0681152,6.5460205,-1.6479492,0.29663086,0.6586914,0.6633301,0.0018310547,-0.028564453,0.0040283203,113 
2.029419,7.583618,-1.1901855,0.29614258,0.66137695,0.6623535,0.0018310547,-0.028564453,0.0040283203,114 
2.166748,7.7209473,-1.373291,0.296875,0.6621094,0.6635742,0.091552734,-0.026000977,0.0025634766,115 
1.5716553,6.958008,-0.5340576,0.2980957,0.6604004,0.66503906,-0.0021972656,-0.026000977,0.0025634766,116 
1.5869141,5.9661865,-0.12207031,0.2993164,0.657959,0.66674805,-0.0021972656,-0.026000977,0.0025634766,117 
0.90026855,5.493164,-0.2746582,0.29882812,0.6567383,0.6677246,-0.0021972656,-0.026733398,0.009155273,118 
1.4343262,4.8065186,0.030517578,0.29785156,0.6557617,0.6682129,-0.0021972656,-0.026733398,0.009155273,119 
0.5187988,4.8217773,-0.30517578,0.2980957,0.654541,0.6687012,-0.0021972656,-0.030029297,0.013916016,120 
-0.44250488,4.0740967,0.30517578,0.3005371,0.65234375,0.6677246,0.006591797,-0.030029297,0.013916016,121 
-0.7324219,3.3416748,0.48828125,0.3022461,0.6513672,0.6665039,0.006591797,-0.030029297,0.013916016,122 
-1.4801025,2.670288,1.159668,0.30297852,0.65185547,0.6647949,-0.0029296875,-0.02709961,0.0029296875,123 
-1.9836426,1.4038086,1.3275146,0.30273438,0.65283203,0.6633301,-0.0029296875,-0.02709961,0.0029296875,124 
-1.9378662,1.2054443,1.5411377,0.30200195,0.6530762,0.6608887,-0.0029296875,-0.02709961,0.009155273,125 
-0.9460449,1.7852783,1.5869141,0.30004883,0.65405273,0.66015625,-0.0007324219,-0.025268555,0.009155273,126 
-0.50354004,2.2277832,1.3580322,0.29907227,0.6550293,0.6599121,-0.0007324219,-0.025268555,0.009155273,127 
0.4272461,2.532959,0.76293945,0.2980957,0.65649414,0.66064453,0.0036621094,-0.024902344,0.006591797,128 
1.8310547,3.6315918,0.22888184,0.29663086,0.6574707,0.6616211,0.0036621094,-0.024902344,0.006591797,129 
2.2888184,4.348755,-0.10681152,0.29614258,0.6582031,0.6628418,0.0036621094,-0.024902344,0.006591797,130 
2.6855469,4.348755,-0.36621094,0.29638672,0.6574707,0.66308594,0.0029296875,-0.02746582,0.005859375,131 
2.7160645,5.1727295,-0.39672852,0.296875,0.65649414,0.6628418,0.0029296875,-0.02746582,0.005859375,132 
2.9144287,5.5236816,-0.5340576,0.29736328,0.65600586,0.6628418,0.00036621094,-0.024902344,0.005126953,133 
3.2653809,5.722046,-0.39672852,0.29833984,0.65478516,0.66259766,0.00036621094,-0.024902344,0.005126953,134 
3.8146973,5.935669,-0.8544922,0.30029297,0.6538086,0.66259766,0.00036621094,-0.024902344,0.005126953,135 
4.6691895,5.722046,-0.6713867,0.30151367,0.65356445,0.66259766,-0.0018310547,-0.021240234,0.0036621094,136 
5.4626465,5.706787,-0.7324219,0.30273438,0.6530762,0.66308594,-0.0018310547,-0.021240234,0.0036621094,137 
5.3100586,5.92041,-0.7171631,0.30322266,0.6520996,0.66381836,0.0025634766,-0.026367188,0.006958008,138 
5.203247,4.9438477,-0.30517578,0.30371094,0.6496582,0.66430664,0.0025634766,-0.026367188,0.006958008,139 
4.4403076,4.0893555,0.24414062,0.30444336,0.6477051,0.66381836,0.0025634766,-0.026367188,0.006958008,140 
3.692627,3.5247803,0.62561035,0.30541992,0.64697266,0.66430664,0.006591797,-0.02746582,0.005859375,141 
2.5787354,2.532959,0.869751,0.30639648,0.6459961,0.6660156,0.006591797,-0.02746582,0.005859375,142 
2.0751953,2.1972656,1.3427734,0.30566406,0.64624023,0.66674805,-0.0043945312,-0.024902344,0.0029296875,143 
1.5869141,2.090454,1.6021729,0.30566406,0.6464844,0.66845703,-0.0043945312,-0.024902344,0.0029296875,144 
1.2359619,1.9836426,1.2664795,0.30541992,0.64697266,0.66967773,-0.0043945312,-0.024902344,0.0029296875,145 
0.77819824,1.7547607,1.159668,0.30493164,0.6459961,0.6694336,-0.0036621094,-0.025634766,0.0021972656,146 
0.5950928,1.876831,1.4648438,0.30493164,0.64453125,0.6689453,-0.0036621094,-0.025634766,0.0021972656,147 
-0.076293945,1.8005371,1.3275146,0.30444336,0.6430664,0.66796875,0.0018310547,-0.028564453,0.0040283203,148 
-0.45776367,1.3122559,1.3122559,0.3034668,0.6430664,0.66748047,0.0018310547,-0.028564453,0.0040283203,149 
-0.5950928,2.1972656,1.0070801,0.30200195,0.6430664,0.6677246,0.0018310547,-0.028564453,0.0040283203,150 
-0.2593994,2.243042,0.9613037,0.30078125,0.64404297,0.6672363,0.005126953,-0.028198242,0.008422852,151 
-0.5645752,2.6245117,0.289917,0.3005371,0.6442871,0.66674805,0.005126953,-0.028198242,0.008422852,152 
-0.36621094,2.7008057,0.6713867,0.30004883,0.6455078,0.66625977,-0.0014648438,-0.024902344,0.0036621094,153 
-0.18310547,2.7923584,0.62561035,0.2998047,0.6459961,0.6657715,-0.0014648438,-0.024902344,0.0036621094,154 
0.061035156,3.1585693,0.8087158,0.30029297,0.6467285,0.66552734,-0.0014648438,-0.024902344,0.0036621094,155 
-0.2593994,3.1738281,0.5340576,0.3005371,0.6472168,0.6657715,-0.0029296875,-0.024169922,0.0036621094,156 
0.015258789,2.9754639,0.45776367,0.3010254,0.6477051,0.66674805,-0.0029296875,-0.024169922,0.0036621094,157 
-0.10681152,2.5482178,0.289917,0.30200195,0.64868164,0.6677246,0.0040283203,-0.026367188,0.0073242188,158 
-1.0528564,1.9073486,0.5950928,0.3010254,0.6496582,0.6689453,0.0040283203,-0.026367188,0.0073242188,159 
-1.2054443,2.3651123,0.076293945,0.30029297,0.6508789,0.67089844,0.0040283203,-0.026367188,0.0073242188,160 
-1.6021729,2.166748,0.33569336,0.30151367,0.65112305,0.6706543,0.0032958984,-0.024902344,0.0018310547,161 
-2.090454,1.4038086,0.48828125,0.3010254,0.65234375,0.6694336,0.0032958984,-0.024902344,0.0018310547,162 
-2.3040771,2.166748,0.8239746,0.30078125,0.6525879,0.6687012,0.0025634766,-0.023803711,0.0036621094,163 
-3.3111572,1.4648438,0.869751,0.30029297,0.6501465,0.66674805,0.0025634766,-0.023803711,0.0036621094,164 
-3.3721924,1.7242432,1.2207031,0.29858398,0.64941406,0.6647949,0.0025634766,-0.023803711,0.0036621094,165 
-2.4108887,2.0599365,1.159668,0.29736328,0.6501465,0.6645508,0.0018310547,-0.026733398,0.009521484,166 
-2.39563,2.746582,0.5340576,0.29638672,0.6516113,0.66503906,0.0018310547,-0.026733398,0.009521484,167 
-0.93078613,3.616333,0.12207031,0.29736328,0.6533203,0.66552734,0.005126953,-0.027832031,0.006958008,168 
-0.9918213,3.189087,0.32043457,0.29882812,0.65478516,0.66381836,0.005126953,-0.027832031,0.006958008,169 
-0.8239746,2.8686523,0.76293945,0.2980957,0.65405273,0.66259766,0.005126953,-0.027832031,0.006958008,170 
-1.4190674,2.822876,0.9460449,0.29760742,0.65234375,0.6611328,0.0029296875,-0.025634766,0.0043945312,171 
-1.0070801,2.8381348,1.5869141,0.29589844,0.6516113,0.6604004,0.0029296875,-0.025634766,0.0043945312,172 
-1.0223389,2.9144287,2.2735596,0.29492188,0.65356445,0.6599121,-0.0007324219,-0.01940918,0.009155273,173 
0.061035156,3.0212402,1.8005371,0.2956543,0.65600586,0.66064453,-0.0007324219,-0.01940918,0.009155273,174 
0.33569336,2.670288,2.0446777,0.29638672,0.6574707,0.6621094,-0.0007324219,-0.01940918,0.009155273,175 
0.5645752,3.4484863,2.2277832,0.296875,0.65771484,0.66259766,-0.008422852,-0.024536133,0.008056641,176 
0.6713867,3.8146973,2.2735596,0.296875,0.65844727,0.66503906,-0.008422852,-0.024536133,0.008056641,177 
1.1444092,4.3640137,1.7700195,0.29638672,0.65966797,0.6665039,0.009155273,-0.026733398,0.008422852,178 
1.8463135,5.844116,1.4801025,0.29663086,0.6608887,0.6687012,0.009155273,-0.026733398,0.008422852,179 
2.4719238,4.852295,1.1444092,0.29760742,0.6623535,0.670166,0.009155273,-0.026733398,0.008422852,180 
2.7770996,4.4403076,1.7089844,0.29907227,0.66137695,0.67041016,0.004760742,-0.02709961,0.0073242188,181 
2.0751953,3.5095215,2.0599365,0.29956055,0.657959,0.67041016,0.004760742,-0.02709961,0.0073242188,182 
1.3427734,3.0975342,1.9226074,0.3005371,0.65405273,0.6699219,-0.00036621094,-0.02709961,0.0073242188,183 
0.19836426,2.9907227,2.2735596,0.30029297,0.6516113,0.66918945,-0.00036621094,-0.02709961,0.0073242188,184 
-0.5493164,2.5177002,2.532959,0.3022461,0.64941406,0.6672363,-0.00036621094,-0.02709961,0.0073242188,185 
-1.5869141,2.2888184,2.609253,0.30249023,0.6472168,0.6652832,-0.006591797,-0.025634766,0.0087890625,186 
-2.2125244,1.6021729,2.5939941,0.3022461,0.6455078,0.6640625,-0.006591797,-0.025634766,0.0087890625,187 
-2.4719238,1.1291504,2.5024414,0.30078125,0.64575195,0.6628418,0.008056641,-0.02746582,0.0087890625,188 
-3.3111572,1.5106201,2.2735596,0.29956055,0.64746094,0.66137695,0.008056641,-0.02746582,0.0087890625,189 
-3.112793,1.2512207,1.9683838,0.2980957,0.64990234,0.66015625,0.008056641,-0.02746582,0.0087890625,190 
-2.670288,1.3427734,1.9989014,0.296875,0.6525879,0.6594238,0.008422852,-0.025634766,0.005859375,191 
-2.2888184,1.7700195,1.9226074,0.29614258,0.6542969,0.65966797,0.008422852,-0.025634766,0.005859375,192 
-1.5563965,1.6174316,1.5716553,0.2956543,0.65600586,0.6604004,0.0010986328,-0.0234375,0.008422852,193 
-1.159668,2.3651123,1.4190674,0.2956543,0.6567383,0.66137695,0.0010986328,-0.0234375,0.008422852,194 
-0.5187988,3.0212402,0.8239746,0.29467773,0.6567383,0.66259766,0.0010986328,-0.0234375,0.008422852,195 
0.091552734,3.5247803,0.48828125,0.29467773,0.65625,0.6635742,0.0032958984,-0.028198242,0.0021972656,196 
-0.21362305,3.2958984,-0.22888184,0.29541016,0.65527344,0.66430664,0.0032958984,-0.028198242,0.0021972656,197 
-0.6561279,2.8839111,-0.015258789,0.29516602,0.654541,0.6645508,0.010986328,-0.028198242,0.006591797,198 
-0.5645752,2.8533936,0.1373291,0.29467773,0.6542969,0.6647949,0.010986328,-0.028198242,0.006591797,199 
-0.61035156,3.0975342,0.0,0.2939453,0.6542969,0.6640625,0.010986328,-0.028198242,0.006591797,200 
-1.3427734,2.9144287,-0.21362305,0.2932129,0.6555176,0.66430664,0.0040283203,-0.024169922,0.005493164,201 
-1.0986328,3.692627,-0.2746582,0.29248047,0.65722656,0.6645508,0.0040283203,-0.024169922,0.005493164,202 
-0.64086914,3.6621094,-0.7324219,0.2927246,0.6586914,0.6645508,0.0025634766,-0.025268555,0.0076904297,203 
-0.8239746,3.982544,-0.35095215,0.29296875,0.66064453,0.66430664,0.0025634766,-0.025268555,0.0076904297,204 
-0.8087158,3.4332275,-0.1373291,0.29370117,0.6608887,0.66308594,0.0025634766,-0.025268555,0.0076904297,205 
-0.869751,3.3569336,-0.5493164,0.2939453,0.6604004,0.6621094,-0.0036621094,-0.028198242,0.0076904297,206 
-0.64086914,3.7841797,0.19836426,0.29296875,0.6599121,0.6616211,-0.0036621094,-0.028198242,0.0076904297,207 
0.1373291,3.540039,0.21362305,0.29223633,0.65893555,0.6616211,-0.0036621094,-0.026733398,0.006225586,208 
0.39672852,4.486084,3.8604736,0.2915039,0.6586914,0.6621094,0.0076904297,-0.026733398,0.006225586,209 
0.8087158,3.90625,-0.5187988,0.2915039,0.6582031,0.66259766,0.0076904297,-0.026733398,0.006225586,210 
0.76293945,4.547119,-0.74768066,0.29174805,0.65771484,0.6635742,0.0018310547,-0.028930664,0.008056641,211 
0.7324219,4.5166016,-0.9460449,0.2915039,0.6582031,0.66430664,0.0018310547,-0.028930664,0.008056641,212 
1.0375977,4.5928955,-1.0681152,0.2915039,0.6591797,0.6645508,0.0018310547,-0.028930664,0.008422852,213 
1.1291504,5.4779053,-1.0375977,0.29125977,0.6611328,0.66552734,0.0014648438,-0.026733398,0.008422852,214 
1.2359619,5.1879883,-1.2054443,0.2919922,0.6621094,0.66552734,0.0014648438,-0.026733398,0.008422852,215 
2.029419,5.935669,-1.0070801,0.2927246,0.66308594,0.66552734,0.0007324219,-0.026733398,0.006591797,216 
2.7160645,6.0577393,-0.9460449,0.2932129,0.66381836,0.6657715,0.0007324219,-0.026733398,0.006591797,217 
3.0059814,6.3323975,-1.0528564,0.29492188,0.6640625,0.6657715,0.0007324219,-0.026733398,0.006591797,218 
3.692627,6.210327,-0.8392334,0.29785156,0.66259766,0.66381836,0.005126953,-0.030395508,0.0032958984,219 
2.746582,5.264282,-0.47302246,0.30029297,0.65844727,0.6621094,0.005126953,-0.030395508,0.0032958984,220 
1.9683838,4.3029785,0.30517578,0.3010254,0.65478516,0.6604004,0.0014648438,-0.024536133,0.006591797,221 
1.3275146,4.196167,1.0375977,0.3017578,0.6525879,0.6591797,0.0014648438,-0.024536133,0.006591797,222 
0.4272461,3.2958984,1.2817383,0.3022461,0.6520996,0.65844727,0.0014648438,-0.024536133,0.006591797,223 
1.0070801,3.5247803,1.0986328,0.30249023,0.65283203,0.66015625,0.0032958984,-0.026733398,0.005859375,224 
1.0681152,3.0822754,1.2207031,0.30249023,0.6542969,0.66259766,0.0032958984,-0.026733398,0.005859375,225 
0.62561035,2.7160645,2.090454,0.30273438,0.6557617,0.66381836,-0.0014648438,-0.027832031,0.006591797,226 
-0.2593994,2.319336,1.5869141,0.30151367,0.65600586,0.66381836,-0.0014648438,-0.027832031,0.006591797,227 
-0.64086914,2.2583008,2.0446777,0.29833984,0.6550293,0.66308594,-0.0014648438,-0.027832031,0.006591797,228 
-1.6021729,2.0599365,1.953125,0.29516602,0.6542969,0.6611328,0.005493164,-0.029296875,0.008422852,229 
-1.4343262,2.746582,1.3275146,0.29174805,0.6555176,0.66064453,0.005493164,-0.029296875,0.008422852,230 
-0.38146973,3.6621094,0.76293945,0.28955078,0.6582031,0.6623535,0.0007324219,-0.024536133,0.0073242188,231 
0.35095215,4.547119,-0.4119873,0.28930664,0.6611328,0.6647949,0.0007324219,-0.024536133,0.0073242188,232 
0.9613037,6.0272217,-1.1901855,0.28979492,0.6633301,0.66625977,0.0007324219,-0.024536133,0.0073242188,233 
0.6713867,5.996704,-2.1362305,0.29052734,0.6645508,0.6657715,-0.0010986328,-0.024536133,0.008422852,234 
1.3580322,6.0577393,-2.2125244,0.2902832,0.66503906,0.66308594,-0.0010986328,-0.024536133,0.008422852,235 
1.4953613,6.6375732,-2.166748,0.28979492,0.6635742,0.6594238,0.0007324219,-0.026733398,0.006958008,236 
2.670288,7.217407,-2.243042,0.2890625,0.6621094,0.6555176,0.0007324219,-0.026733398,0.006958008,237 
4.180908,8.117676,-2.2735596,0.28930664,0.66064453,0.65356445,0.0007324219,-0.026733398,0.006958008,238 
5.569458,9.3688965,-2.9754639,0.2915039,0.6591797,0.65283203,0.005126953,-0.028198242,0.006591797,239 
6.9885254,8.895874,-3.5247803,0.2944336,0.65771484,0.6542969,0.005126953,-0.028198242,0.006591797,240 
7.5683594,9.185791,-3.6621094,0.29882812,0.65771484,0.65527344,-0.0032958984,-0.023803711,0.012817383,241 
7.9803467,7.232666,-3.0212402,0.3034668,0.6567383,0.657959,-0.0032958984,-0.023803711,0.012817383,242 
8.407593,4.1656494,-2.0751953,0.30444336,0.6567383,0.6621094,-0.0032958984,-0.023803711,0.012817383,243 
8.605957,7.827759,-1.7242432,0.30688477,0.6586914,0.66748047,-0.009155273,-0.022705078,0.0076904297,244 
8.865356,7.247925,-1.0528564,0.30908203,0.66186523,0.6726074,-0.009155273,-0.022705078,0.0076904297,245 
8.605957,6.134033,0.45776367,0.31176758,0.6616211,0.67578125,-0.006591797,-0.025268555,0.0076904297,246 
7.3547363,4.6539307,1.9226074,0.31469727,0.657959,0.6755371,-0.006591797,-0.025268555,0.0076904297,247 
5.3253174,3.3111572,3.7231445,0.31689453,0.64990234,0.67285156,-0.006591797,-0.025268555,0.0076904297,248 
3.3416748,1.2664795,5.355835,0.3173828,0.63916016,0.66845703,0.0029296875,-0.028930664,0.005126953,249 
0.35095215,0.38146973,6.210327,0.3173828,0.62646484,0.66308594,0.0029296875,-0.028930664,0.005126953,250 
-2.7770996,-0.10681152,7.171631,0.3161621,0.6154785,0.65771484,0.0018310547,-0.026000977,0.0010986328,251 
-4.6844482,-0.74768066,7.217407,0.31420898,0.60961914,0.6542969,0.0018310547,-0.026000977,0.0010986328,252 
-7.3394775,-1.1444092,6.515503,0.31152344,0.6105957,0.65356445,0.0018310547,-0.026000977,0.0010986328,253 
-8.514404,-1.0681152,5.508423,0.30810547,0.61816406,0.6569824,-0.005493164,-0.026000977,0.006958008,254 
-8.361816,-0.7324219,4.272461,0.3034668,0.6308594,0.66259766,-0.005493164,-0.026000977,0.006958008,255 
-7.461548,0.21362305,2.5482178,0.29663086,0.6455078,0.6682129,0.0032958984,-0.028930664,0.012084961,0 
-5.645752,2.3345947,0.15258789,0.28930664,0.6604004,0.673584,0.0032958984,-0.028930664,0.012084961,1 
-2.9754639,4.8065186,-1.7242432,0.28173828,0.6726074,0.67749023,0.0032958984,-0.028930664,0.012084961,2 
-0.6866455,6.866455,-3.9367676,0.27563477,0.68115234,0.67871094,0.0043945312,-0.02746582,0.005493164,3 
2.3498535,9.750366,-5.508423,0.2709961,0.6850586,0.6789551,0.0043945312,-0.02746582,0.005493164,4 
4.8675537,11.917114,-7.537842,0.2697754,0.6850586,0.6779785,-0.006958008,-0.024169922,0.0087890625,5 
7.9040527,14.526367,-9.140015,0.2722168,0.68066406,0.67578125,-0.006958008,-0.024169922,0.0087890625,6 
9.170532,15.274048,-10.177612,0.27685547,0.67285156,0.67285156,-0.006958008,-0.024169922,0.0087890625,7 
9.994507,15.2282715,-10.864258,0.28442383,0.6623535,0.66918945,-0.006958008,-0.026733398,0.009887695,8 
9.44519,15.090942,-11.001587,0.29174805,0.65185547,0.6640625,-0.006958008,-0.026733398,0.009887695,9 
9.277344,14.99939,-9.643555,0.2980957,0.6447754,0.6604004,-0.0010986328,-0.029663086,0.0087890625,10 
7.8582764,14.694214,-8.453369,0.30615234,0.63964844,0.6582031,-0.0010986328,-0.029663086,0.0087890625,11 
7.2631836,12.908936,-7.2784424,0.31640625,0.63793945,0.65649414,-0.0010986328,-0.029663086,0.0087890625,12 
4.8217773,9.94873,-4.79126,0.32641602,0.6376953,0.6557617,-0.005493164,-0.024536133,0.006225586,13 
2.9296875,6.6223145,-1.9989014,0.33496094,0.63671875,0.6555176,-0.005493164,-0.024536133,0.006225586,14 
2.5939941,2.8381348,1.0070801,0.34057617,0.63916016,0.6555176,-0.010620117,-0.023071289,0.0029296875,15 
1.5258789,0.015258789,3.6621094,0.34301758,0.64331055,0.65625,-0.010620117,-0.023071289,0.0029296875,16 
0.030517578,-2.9144287,6.164551,0.34106445,0.6442871,0.6574707,-0.010620117,-0.023071289,0.0029296875,17 
-1.0375977,-4.79126,7.30896,0.33691406,0.6437988,0.6586914,-0.009155273,-0.021606445,0.012451172,18 
-2.9449463,-4.562378,8.453369,0.32910156,0.64501953,0.6599121,-0.009155273,-0.021606445,0.012451172,19 
-3.2348633,-4.9438477,7.9345703,0.3203125,0.64819336,0.66064453,-0.0040283203,-0.024169922,0.011352539,20 
-2.4414062,-3.540039,7.6293945,0.31323242,0.6508789,0.66015625,-0.0040283203,-0.024169922,0.011352539,21 
-1.9989014,-2.380371,6.454468,0.30566406,0.65185547,0.6599121,-0.0040283203,-0.024169922,0.011352539,22 
-0.076293945,-0.19836426,5.2948,0.29907227,0.6516113,0.66015625,0.00036621094,-0.024536133,0.008056641,23 
1.8920898,1.7852783,3.5552979,0.2939453,0.65063477,0.66186523,0.00036621094,-0.024536133,0.008056641,24 
2.166748,3.9215088,1.7852783,0.29125977,0.64990234,0.66308594,-0.0043945312,-0.020507812,0.009887695,25 
2.9907227,5.493164,0.38146973,0.29101562,0.64819336,0.66430664,-0.0043945312,-0.020507812,0.009887695,26 
3.2958984,5.554199,-0.45776367,0.29077148,0.6464844,0.66503906,-0.0043945312,-0.020507812,0.009887695,27 
2.7618408,6.6833496,-1.1749268,0.29101562,0.64501953,0.66674805,-0.0032958984,-0.024536133,0.005126953,28 
3.2958984,6.8969727,-1.2207031,0.2915039,0.64501953,0.6687012,-0.0032958984,-0.024536133,0.005126953,29 
3.40271,7.0343018,-1.4648438,0.2927246,0.6459961,0.67089844,0.0021972656,-0.025634766,0.005126953,30 
3.463745,6.9122314,-1.8920898,0.29467773,0.6464844,0.6730957,0.0021972656,-0.025634766,0.005126953,31 
2.7160645,6.6375732,-2.090454,0.29711914,0.6467285,0.67456055,0.0021972656,-0.025634766,0.005126953,32 
2.3040771,6.3323975,-1.663208,0.29956055,0.6467285,0.67456055,-0.0040283203,-0.0234375,0.010253906,33 
1.6326904,5.9509277,-1.7242432,0.30200195,0.6477051,0.6750488,-0.0040283203,-0.0234375,0.010253906,34 
1.0986328,6.149292,-1.0528564,0.30517578,0.6489258,0.67407227,-0.09338379,-0.0234375,0.006958008,35 
0.6713867,5.9661865,-0.8544922,0.30737305,0.64941406,0.67285156,0.00036621094,-0.0234375,0.006958008,36 
1.1291504,4.928589,-0.091552734,0.3100586,0.65063477,0.67211914,0.00036621094,-0.0234375,0.006958008,37 
1.6479492,4.989624,0.38146973,0.31176758,0.6501465,0.6706543,-0.004760742,-0.0234375,0.0010986328,38 
1.8463135,4.79126,0.4119873,0.31298828,0.6491699,0.66967773,-0.004760742,-0.0234375,0.0010986328,39 
2.2583008,4.257202,1.0986328,0.31347656,0.6479492,0.6694336,-0.004760742,-0.026000977,0.0040283203,40 
2.319336,3.6315918,0.93078613,0.31298828,0.6467285,0.6682129,0.004760742,-0.026000977,0.0040283203,41 
2.3345947,3.7994385,1.0986328,0.31323242,0.6455078,0.66674805,0.004760742,-0.026000977,0.0040283203,42 
1.8615723,3.2958984,1.1901855,0.31225586,0.6442871,0.6657715,0.0014648438,-0.023803711,0.0087890625,43 
1.876831,3.768921,1.2359619,0.31079102,0.6435547,0.66552734,0.0014648438,-0.023803711,0.0087890625,44 
2.2888184,3.5095215,0.9460449,0.3095703,0.6425781,0.6647949,0.0014648438,-0.023803711,0.008422852,45 
1.8005371,4.470825,0.38146973,0.3088379,0.64208984,0.6640625,-0.0036621094,-0.019042969,0.008422852,46 
1.8463135,5.1879883,-0.4272461,0.3083496,0.6418457,0.6633301,-0.0036621094,-0.019042969,0.008422852,47 
2.166748,5.645752,-0.50354004,0.30859375,0.6413574,0.66381836,-0.006225586,-0.023803711,0.005493164,48 
2.105713,5.630493,-1.4343262,0.3083496,0.6411133,0.6635742,-0.006225586,-0.023803711,0.005493164,49 
2.1362305,7.0495605,-1.8005371,0.3095703,0.6401367,0.6633301,-0.006225586,-0.023803711,0.0076904297,50 
1.0986328,7.2784424,-1.953125,0.31152344,0.6394043,0.6635742,0.0036621094,-0.023803711,0.0076904297,51 
0.5340576,6.866455,-1.7242432,0.3125,0.6401367,0.66430664,0.0036621094,-0.023803711,0.0076904297,52 
-0.35095215,6.3934326,-1.7852783,0.3137207,0.64160156,0.6652832,-0.0073242188,-0.020874023,0.005126953,53 
-0.88500977,6.1035156,-1.1749268,0.31445312,0.642334,0.6657715,-0.0073242188,-0.020874023,0.005126953,54 
-1.4648438,4.8675537,-0.50354004,0.31445312,0.6430664,0.6660156,-0.0073242188,-0.020874023,0.005126953,55 
-0.7324219,4.6691895,-0.38146973,0.31420898,0.64404297,0.6657715,0.0018310547,-0.021972656,0.006958008,56 
-0.8087158,4.1656494,0.15258789,0.31420898,0.64575195,0.6652832,0.0018310547,-0.021972656,0.006958008,57 
-0.16784668,4.058838,0.5493164,0.31445312,0.6459961,0.6652832,-0.0029296875,-0.023803711,0.008056641,58 
0.10681152,2.7008057,1.1444092,0.31591797,0.64575195,0.66552734,-0.0029296875,-0.023803711,0.008056641,59 
-0.076293945,2.1972656,1.2664795,0.31640625,0.64501953,0.66552734,-0.0029296875,-0.023803711,0.008056641,60 
0.7019043,1.9989014,1.8463135,0.3161621,0.6447754,0.6660156,0.006225586,-0.028564453,0.0073242188,61 
1.083374,1.4190674,1.7089844,0.31518555,0.64404297,0.66625977,0.006225586,-0.028564453,0.0073242188,62 
0.8392334,2.1820068,2.243042,0.3137207,0.6442871,0.6672363,-0.006225586,-0.023803711,0.006225586,63 
0.5645752,1.4648438,1.739502,0.31274414,0.6442871,0.6687012,-0.006225586,-0.023803711,0.006225586,64 
0.7171631,0.5950928,1.6784668,0.31274414,0.6437988,0.6687012,-0.006225586,-0.023803711,0.006225586,65 
0.33569336,0.091552734,1.9378662,0.3125,0.6430664,0.6689453,-0.005859375,-0.024536133,0.0025634766,66 
-0.2593994,0.61035156,2.1362305,0.31152344,0.64208984,0.6682129,-0.005859375,-0.024536133,0.0025634766,67 
-0.6713867,0.076293945,1.953125,0.3095703,0.6413574,0.66748047,-0.0007324219,-0.02746582,0.008056641,68 
-0.5340576,0.8087158,1.5869141,0.30859375,0.64160156,0.66625977,-0.0007324219,-0.02746582,0.008056641,69 
-0.579834,0.91552734,1.373291,0.30737305,0.6425781,0.66552734,-0.0007324219,-0.02746582,0.008056641,70 
-0.77819824,1.4648438,0.9613037,0.30639648,0.64282227,0.66552734,0.0036621094,-0.030029297,0.0014648438,71 
-0.5340576,1.4953613,1.083374,0.30566406,0.64331055,0.6660156,0.0036621094,-0.030029297,0.0014648438,72 
0.16784668,2.8076172,0.579834,0.30541992,0.64331055,0.66625977,-0.0007324219,-0.022705078,0.008422852,73 
-0.091552734,2.9754639,-0.076293945,0.30517578,0.64404297,0.6657715,-0.0007324219,-0.022705078,0.008422852,74 
-0.35095215,3.189087,0.32043457,0.3059082,0.6442871,0.66625977,-0.0007324219,-0.022705078,0.008422852,75 
0.0,3.692627,0.015258789,0.3071289,0.6437988,0.6669922,-0.006225586,-0.023803711,0.010253906,76 
-0.44250488,3.2196045,0.22888184,0.3076172,0.64404297,0.6677246,-0.006225586,-0.023803711,0.010253906,77 
-1.4038086,2.822876,0.091552734,0.30786133,0.6435547,0.6687012,0.0018310547,-0.023803711,0.006225586,78 
-1.663208,3.0975342,0.2593994,0.3083496,0.6435547,0.6694336,0.0018310547,-0.023803711,0.006225586,79 
-1.8463135,2.7313232,0.10681152,0.3088379,0.6442871,0.6689453,0.0018310547,-0.023803711,0.006225586,80 
-2.0141602,2.456665,0.39672852,0.30981445,0.6447754,0.66845703,0.0007324219,-0.025634766,0.008422852,81 
-2.166748,2.0599365,0.7171631,0.30981445,0.6455078,0.66748047,0.0007324219,-0.025634766,0.008422852,82 
-2.0751953,1.739502,0.8087158,0.30932617,0.64575195,0.66625977,-0.006591797,-0.02709961,0.006958008,83 
-2.746582,1.6174316,1.1291504,0.30859375,0.6464844,0.6665039,-0.006591797,-0.02709961,0.006958008,84 
-6.729126,2.9296875,1.159668,0.30737305,0.6501465,0.66503906,-0.006591797,-0.02709961,0.006958008,85 
-9.246826,4.333496,-0.45776367,0.30395508,0.65893555,0.670166,-0.005126953,-0.026000977,0.008422852,86 
-8.636475,7.003784,-2.380371,0.30029297,0.6640625,0.67211914,-0.005126953,-0.026000977,0.008422852,87 
-11.84082,8.361816,-4.8065186,0.29760742,0.65649414,0.6706543,0.005859375,-0.027832031,0.010253906,88 
-14.892578,10.864258,-7.2021484,0.2956543,0.64990234,0.67529297,0.005859375,-0.027832031,0.010253906,89 
-16.937256,12.023926,-8.666992,0.29638672,0.64404297,0.67822266,0.005859375,-0.027832031,0.010253906,90 
-18.28003,11.642456,-12.481689,0.2993164,0.63793945,0.67626953,0.008056641,-0.025268555,0.009155273,91 
-17.349243,10.284424,-14.892578,0.30078125,0.6335449,0.66967773,0.008056641,-0.025268555,0.009155273,92 
-17.01355,11.245728,-16.403198,0.30004883,0.6345215,0.6604004,-0.0043945312,-0.025268555,0.012451172,93 
-14.465332,12.557983,-16.738892,0.3017578,0.64208984,0.65356445,-0.0043945312,-0.025268555,0.012451172,94 
-11.260986,13.793945,-15.518188,0.30786133,0.6555176,0.6503906,-0.0043945312,-0.025268555,0.012451172,95 
-6.5307617,13.48877,-12.924194,0.31762695,0.6699219,0.6477051,-0.01171875,-0.02709961,0.010620117,96 
-2.6550293,12.237549,-9.796143,0.32543945,0.6796875,0.6455078,-0.01171875,-0.02709961,0.010620117,97 
0.6561279,10.955811,-6.378174,0.33007812,0.6809082,0.64453125,-0.009887695,-0.029663086,0.01171875,98 
3.616333,9.994507,-7.5531006,0.3330078,0.6796875,0.64331055,-0.009887695,-0.029663086,0.01171875,99 
7.2784424,8.468628,-1.4190674,0.33569336,0.6750488,0.64208984,-0.009887695,-0.029663086,0.01171875,100 
9.20105,5.4779053,0.8392334,0.33813477,0.6665039,0.64208984,-0.009887695,-0.028198242,0.015014648,101 
10.620117,3.036499,2.6397705,0.3395996,0.65649414,0.642334,-0.009887695,-0.028198242,0.015014648,102 
10.620117,-0.12207031,4.6844482,0.3395996,0.64624023,0.64404297,-0.0146484375,-0.026000977,0.009155273,103 
10.147095,-2.3040771,5.7678223,0.33789062,0.63964844,0.6467285,-0.0146484375,-0.026000977,0.009155273,104 
8.19397,-4.486084,7.7667236,0.3347168,0.63623047,0.6489258,-0.0146484375,-0.026000977,0.009155273,105 
6.7596436,-6.4697266,8.7890625,0.33276367,0.63549805,0.6516113,-0.0146484375,-0.026367188,0.012817383,106 
4.3945312,-8.300781,9.32312,0.33007812,0.63720703,0.6538086,-0.0146484375,-0.026367188,0.012817383,107 
2.822876,-9.567261,10.040283,0.32592773,0.64160156,0.65527344,-0.0014648438,-0.028930664,0.0087890625,108 
2.243042,-9.887695,10.299683,0.32177734,0.6472168,0.65625,-0.0014648438,-0.028930664,0.0087890625,109 
1.7242432,-9.048462,10.498047,0.31640625,0.6538086,0.6555176,-0.0014648438,-0.028930664,0.0087890625,110 
2.0141602,-8.590698,10.009766,0.31274414,0.65844727,0.65478516,-0.0018310547,-0.026733398,0.008422852,111 
3.2806396,-7.3394775,9.506226,0.3083496,0.6608887,0.6538086,-0.0018310547,-0.026733398,0.008422852,112 
0.12207031,-6.439209,8.590698,0.30493164,0.6628418,0.65405273,-0.006958008,-0.02709961,0.0043945312,113 
4.989624,-4.638672,7.30896,0.30151367,0.6645508,0.654541,-0.006958008,-0.02709961,0.0043945312,114 
5.706787,-2.1209717,6.1950684,0.29956055,0.6647949,0.65649414,-0.006958008,-0.02709961,0.0043945312,115 
6.2561035,-1.0223389,4.7454834,0.29736328,0.6640625,0.65844727,-0.004760742,-0.02709961,0.0073242188,116 
6.7749023,0.9918213,3.6621094,0.29663086,0.66308594,0.66064453,-0.004760742,-0.02709961,0.0073242188,117 
6.6375732,2.1972656,2.7160645,0.29614258,0.66064453,0.6621094,-0.0904541,-0.028564453,0.006958008,118 
7.1258545,2.8533936,1.876831,0.29614258,0.65771484,0.6640625,0.0032958984,-0.028564453,0.006958008,119 
6.6223145,4.333496,0.5340576,0.29760742,0.654541,0.6660156,0.0032958984,-0.028564453,0.006958008,120 
5.79834,4.6539307,0.091552734,0.30029297,0.65185547,0.66748047,-0.005126953,-0.026367188,0.0073242188,121 
5.645752,5.493164,-0.61035156,0.30371094,0.64941406,0.66845703,-0.005126953,-0.026367188,0.0073242188,122 
4.974365,4.4555664,-0.7019043,0.30688477,0.6467285,0.66918945,-0.004760742,-0.023803711,0.010253906,123 
3.6315918,3.4484863,-0.36621094,0.30981445,0.64404297,0.66967773,-0.004760742,-0.023803711,0.010253906,124 
2.1362305,3.189087,-0.061035156,0.31079102,0.6425781,0.6694336,-0.004760742,-0.023803711,0.010253906,125 
1.3427734,3.3721924,0.21362305,0.3112793,0.64208984,0.6689453,-0.005859375,-0.024536133,0.011352539,126 
0.47302246,3.0670166,0.4272461,0.31103516,0.64208984,0.6687012,-0.005859375,-0.024536133,0.011352539,127 
0.19836426,2.4261475,0.79345703,0.3112793,0.6418457,0.6677246,-0.005859375,-0.026367188,0.01171875,128 
-0.35095215,2.746582,0.9765625,0.31054688,0.642334,0.66625977,0.0073242188,-0.026367188,0.01171875,129 
-0.6713867,2.7770996,1.1138916,0.3088379,0.6425781,0.6645508,0.0073242188,-0.026367188,0.01171875,130 
-0.19836426,2.4261475,0.8544922,0.30786133,0.6425781,0.6628418,-0.0036621094,-0.023803711,0.009155273,131 
-0.061035156,2.456665,1.0986328,0.30737305,0.6425781,0.6621094,-0.0036621094,-0.023803711,0.009155273,132 
0.5340576,2.746582,0.8087158,0.30639648,0.64331055,0.66186523,-0.0036621094,-0.023803711,0.009155273,133 
1.0681152,3.0059814,0.90026855,0.30566406,0.64501953,0.66259766,-0.006591797,-0.022338867,0.009155273,134 
1.3122559,3.40271,0.2593994,0.30541992,0.6472168,0.6633301,-0.006591797,-0.022338867,0.009155273,135 
1.5258789,3.2043457,0.15258789,0.30541992,0.6484375,0.6647949,-0.0021972656,-0.026000977,0.0073242188,136 
1.8463135,4.0893555,0.045776367,0.30517578,0.64941406,0.66625977,-0.0021972656,-0.026000977,0.0073242188,137 
1.8920898,3.982544,0.1373291,0.30493164,0.6501465,0.6672363,-0.0021972656,-0.026000977,0.0073242188,138 
1.4343262,4.2419434,0.61035156,0.30541992,0.6501465,0.6669922,0.00036621094,-0.02746582,0.0025634766,139 
0.6713867,4.2419434,0.30517578,0.3059082,0.64941406,0.6665039,0.00036621094,-0.02746582,0.0025634766,140 
0.5187988,4.0740967,0.44250488,0.30615234,0.6489258,0.6669922,-0.008422852,-0.022705078,0.006591797,141 
0.6561279,7.736206,0.15258789,0.30664062,0.6484375,0.6677246,-0.008422852,-0.022705078,0.006591797,142 
0.39672852,4.4403076,0.1373291,0.3076172,0.6484375,0.6677246,-0.008422852,-0.022705078,0.006591797,143 
-0.5645752,4.0893555,0.15258789,0.3083496,0.64819336,0.6687012,-0.0076904297,-0.023803711,0.005859375,144 
-0.50354004,3.8452148,0.10681152,0.3088379,0.64819336,0.66918945,-0.0076904297,-0.023803711,0.005859375,145 
-1.3275146,4.043579,0.44250488,0.3095703,0.6472168,0.66796875,-0.008422852,-0.026000977,0.004760742,146 
-1.6937256,3.4179688,0.39672852,0.30981445,0.6472168,0.66625977,-0.008422852,-0.026000977,0.004760742,147 
-1.5258789,4.119873,0.7019043,0.30932617,0.6479492,0.6652832,-0.008422852,-0.026000977,0.004760742,148 
-1.5563965,3.112793,0.9613037,0.30908203,0.6484375,0.66430664,0.005126953,-0.024536133,0.008056641,149 
-1.6784668,3.2806396,1.2359619,0.3088379,0.6489258,0.6633301,0.005126953,-0.024536133,0.008056641,150 
-1.7852783,3.3111572,0.76293945,0.3088379,0.6489258,0.66186523,0.0025634766,-0.022705078,0.0087890625,151 
-1.1749268,2.532959,1.0986328,0.3083496,0.6489258,0.6616211,0.0025634766,-0.022705078,0.0087890625,152 
-1.5716553,3.3416748,0.64086914,0.3076172,0.64941406,0.6616211,0.0025634766,-0.022705078,0.0087890625,153 
-1.4801025,2.4871826,0.6866455,0.30810547,0.64990234,0.66186523,-0.009155273,-0.024169922,0.006591797,154 
-1.6174316,2.9296875,0.90026855,0.30810547,0.6501465,0.6611328,-0.009155273,-0.024169922,0.006591797,155 
-1.663208,2.3498535,1.2054443,0.30737305,0.6501465,0.6608887,0.0029296875,-0.026733398,0.011352539,156 
-1.6479492,3.1280518,0.8239746,0.30737305,0.65112305,0.6604004,0.0029296875,-0.026733398,0.011352539,157 
-0.869751,2.380371,1.083374,0.30786133,0.65405273,0.66015625,0.0029296875,-0.026733398,0.011352539,158 
-0.12207031,2.670288,0.8392334,0.30859375,0.65600586,0.6604004,0.005493164,-0.025634766,0.010620117,159 
-0.4119873,2.4108887,1.0070801,0.30908203,0.65527344,0.66137695,0.005493164,-0.025634766,0.010620117,160 
-1.1291504,2.2888184,1.1444092,0.3083496,0.6533203,0.6616211,-0.0073242188,-0.022338867,0.009521484,161 
-0.32043457,3.0822754,1.1444092,0.3076172,0.65234375,0.66259766,-0.0073242188,-0.022338867,0.009521484,162 
-1.5106201,2.746582,1.2054443,0.30688477,0.6525879,0.6628418,-0.0073242188,-0.022338867,0.009521484,163 
-0.8544922,2.9296875,1.159668,0.30664062,0.65283203,0.66259766,-0.0018310547,-0.028564453,0.009155273,164 
-1.0375977,2.243042,1.2054443,0.30688477,0.6525879,0.66259766,-0.0018310547,-0.028564453,0.009155273,165 
-1.1138916,2.7770996,0.90026855,0.30639648,0.6520996,0.66259766,-0.005126953,-0.026000977,0.006225586,166 
-1.2359619,2.7618408,0.76293945,0.30615234,0.6520996,0.66308594,-0.005126953,-0.026000977,0.006225586,167 
-0.5340576,2.9754639,0.6866455,0.3059082,0.65234375,0.6635742,-0.005126953,-0.026000977,0.006225586,168 
-0.7171631,2.7618408,0.7171631,0.30541992,0.6525879,0.6640625,-0.0014648438,-0.028564453,0.009887695,169 
-0.5340576,2.746582,0.4272461,0.30493164,0.6530762,0.6645508,-0.0014648438,-0.028564453,0.009887695,170 
-0.7324219,2.8076172,0.289917,0.30444336,0.6525879,0.66381836,-0.0014648438,-0.026733398,0.0087890625,171 
-0.6866455,2.9449463,0.061035156,0.3034668,0.65185547,0.66503906,-0.0014648438,-0.026733398,0.0087890625,172 
-0.64086914,3.2043457,0.16784668,0.30273438,0.6508789,0.6647949,-0.0014648438,-0.026733398,0.0087890625,173 
-0.289917,3.4332275,-0.045776367,0.3022461,0.6513672,0.66503906,-0.0040283203,-0.024536133,0.004760742,174 
-0.5340576,3.5552979,-0.45776367,0.30200195,0.6520996,0.6645508,-0.0040283203,-0.024536133,0.004760742,175 
-0.38146973,4.470825,-0.2593994,0.30200195,0.65234375,0.66503906,-0.0029296875,-0.028198242,0.009887695,176 
-0.30517578,4.8217773,-0.7171631,0.3022461,0.6538086,0.6640625,-0.0029296875,-0.028198242,0.009887695,177 
-0.5340576,4.425049,-0.7019043,0.30322266,0.65527344,0.6633301,-0.0029296875,-0.028198242,0.009887695,178 
-0.76293945,5.2337646,-0.79345703,0.30297852,0.65478516,0.66308594,-0.0007324219,-0.029296875,0.005493164,179 
-1.5716553,5.126953,-0.869751,0.30273438,0.65405273,0.6628418,-0.0007324219,-0.029296875,0.005493164,180 
-1.9226074,5.9509277,-1.3122559,0.3022461,0.65478516,0.6623535,-0.0036621094,-0.025634766,0.009887695,181 
-1.1749268,6.4697266,-1.159668,0.30297852,0.65649414,0.66137695,-0.0036621094,-0.025634766,0.009887695,182 
-0.62561035,6.088257,-1.2969971,0.30371094,0.6569824,0.6604004,-0.0036621094,-0.025634766,0.009887695,183 
0.1373291,5.7525635,-1.739502,0.3034668,0.65625,0.6594238,-0.01171875,-0.024902344,0.0036621094,184 
0.21362305,5.92041,-1.0375977,0.30419922,0.6550293,0.65893555,-0.01171875,-0.024902344,0.0036621094,185 
0.5493164,5.706787,-0.9765625,0.30566406,0.654541,0.6582031,0.005493164,-0.025634766,0.006591797,186 
0.62561035,6.088257,-0.8392334,0.30737305,0.654541,0.6574707,0.005493164,-0.025634766,0.006591797,187 
0.8544922,5.508423,-0.4272461,0.3088379,0.65478516,0.65771484,0.005493164,-0.025634766,0.006591797,188 
1.1444092,5.4016113,0.091552734,0.30981445,0.6542969,0.6582031,0.0014648438,-0.025634766,0.0,189 
0.8392334,4.8980713,-0.030517578,0.30932617,0.65405273,0.65844727,0.0014648438,-0.025634766,0.0,190 
0.8392334,4.928589,0.1373291,0.30932617,0.6538086,0.6594238,-0.006958008,-0.022338867,0.008056641,191 
1.083374,4.8828125,0.45776367,0.30908203,0.65405273,0.66015625,-0.006958008,-0.022338867,0.008056641,192 
0.8239746,4.837036,0.22888184,0.3095703,0.6530762,0.6611328,-0.006958008,-0.022338867,0.008056641,193 
1.1138916,5.142212,0.33569336,0.30932617,0.6516113,0.66186523,-0.006225586,-0.022705078,0.005493164,194 
0.47302246,4.974365,0.091552734,0.30932617,0.6508789,0.66186523,-0.006225586,-0.022705078,0.005493164,195 
-0.4119873,4.8065186,0.1373291,0.3088379,0.6503906,0.6611328,-0.0014648438,-0.029663086,0.011352539,196 
-0.24414062,5.142212,0.12207031,0.30859375,0.64990234,0.66015625,-0.0014648438,-0.029663086,0.011352539,197 
-0.579834,4.6691895,-0.38146973,0.3088379,0.64990234,0.65893555,-0.0014648438,-0.029663086,0.011352539,198 
-0.19836426,5.1116943,-0.5493164,0.3088379,0.65063477,0.65844727,0.0032958984,-0.02709961,0.008056641,199 
-0.579834,4.40979,-0.76293945,0.3083496,0.6516113,0.65722656,0.0032958984,-0.02709961,0.008056641,200 
3.8909912,4.6539307,-0.90026855,0.3088379,0.65234375,0.6574707,-0.0018310547,-0.024169922,0.010986328,201 
0.4272461,5.3710938,-0.5340576,0.3088379,0.6538086,0.6582031,-0.0018310547,-0.024169922,0.010986328,202 
0.9918213,5.783081,-0.6713867,0.30981445,0.6555176,0.65771484,-0.0018310547,-0.024169922,0.010986328,203 
1.3885498,5.4016113,-0.8392334,0.3112793,0.65600586,0.65844727,-0.005859375,-0.024902344,0.0076904297,204 
0.77819824,5.4016113,-0.12207031,0.31201172,0.65478516,0.6591797,-0.005859375,-0.024902344,0.0076904297,205 
1.2207031,5.4626465,-0.64086914,0.31274414,0.6525879,0.6604004,-0.08935547,-0.025634766,0.008056641,206 
0.8239746,5.4626465,-0.38146973,0.3125,0.6513672,0.66064453,0.0043945312,-0.025634766,0.008056641,207 
1.0375977,5.340576,-0.62561035,0.31298828,0.65185547,0.6608887,0.0043945312,-0.025634766,0.008056641,208 
1.1749268,5.0964355,-0.5950928,0.3137207,0.65234375,0.6608887,-0.0040283203,-0.026000977,0.006225586,209 
0.5340576,4.974365,-0.16784668,0.3149414,0.6516113,0.66137695,-0.0040283203,-0.026000977,0.006225586,210 
0.48828125,4.6081543,0.36621094,0.31567383,0.6496582,0.6608887,-0.0040283203,-0.022705078,0.0073242188,211 
-0.48828125,4.0893555,-0.16784668,0.31518555,0.6484375,0.66137695,-0.009887695,-0.022705078,0.0073242188,212 
-0.36621094,3.8757324,-0.045776367,0.31420898,0.6477051,0.66137695,-0.009887695,-0.022705078,0.0073242188,213 
-0.6713867,3.8604736,-0.076293945,0.3137207,0.64868164,0.6604004,-0.006225586,-0.023803711,0.013549805,214 
-0.9460449,3.6773682,0.10681152,0.3137207,0.64941406,0.65893555,-0.006225586,-0.023803711,0.013549805,215 
-1.1291504,3.7231445,0.076293945,0.31347656,0.6496582,0.657959,-0.006225586,-0.024536133,0.011352539,216 
-0.91552734,3.768921,0.1373291,0.31347656,0.6501465,0.65722656,0.0010986328,-0.024536133,0.011352539,217 
-1.0528564,3.4179688,-0.15258789,0.31298828,0.6501465,0.65649414,0.0010986328,-0.024536133,0.011352539,218 
-0.579834,3.616333,0.1373291,0.31298828,0.64941406,0.65649414,-0.005126953,-0.024536133,0.0076904297,219 
-1.0375977,3.6468506,3.829956,0.31347656,0.6496582,0.65527344,-0.005126953,-0.024536133,0.0076904297,220 
-0.93078613,3.8757324,0.076293945,0.3137207,0.6496582,0.6542969,-0.005126953,-0.024536133,0.008056641,221 
-0.38146973,3.3874512,0.2746582,0.31396484,0.6491699,0.65405273,-0.006591797,-0.024902344,0.008056641,222 
-0.93078613,4.2266846,0.19836426,0.31323242,0.64746094,0.6538086,-0.006591797,-0.024902344,0.008056641,223 
-0.5340576,4.3182373,0.045776367,0.31323242,0.6479492,0.65356445,-0.0087890625,-0.028564453,0.009887695,224 
-0.5340576,4.2266846,-0.076293945,0.31420898,0.6489258,0.65283203,-0.0087890625,-0.028564453,0.009887695,225 
-0.8239746,3.9672852,-0.061035156,0.31420898,0.6479492,0.65283203,-0.0087890625,-0.028564453,0.009887695,226 
-1.6326904,4.348755,0.24414062,0.31420898,0.6467285,0.6520996,0.0007324219,-0.030761719,0.016113281,227 
-1.9378662,3.7078857,0.33569336,0.31298828,0.64575195,0.6513672,0.0007324219,-0.030761719,0.016113281,228 
-1.3122559,4.5318604,-0.061035156,0.31298828,0.6464844,0.65185547,-0.008056641,-0.027832031,0.012817383,229 
0.030517578,4.547119,0.289917,0.31274414,0.6508789,0.6533203,-0.008056641,-0.027832031,0.012817383,230 
1.2207031,4.776001,0.47302246,0.31347656,0.65649414,0.6567383,-0.008056641,-0.027832031,0.012817383,231 
2.5939941,4.8675537,0.35095215,0.31469727,0.6586914,0.6621094,-0.013549805,-0.0234375,0.006958008,232 
2.1209717,4.272461,0.76293945,0.3161621,0.6599121,0.66796875,-0.013549805,-0.0234375,0.006958008,233 
1.5411377,4.058838,0.6713867,0.31689453,0.66137695,0.67285156,-0.006225586,-0.025634766,0.012084961,234 
0.39672852,3.2653809,1.0681152,0.31762695,0.66186523,0.67456055,-0.006225586,-0.025634766,0.012084961,235 
-0.015258789,2.4414062,1.8157959,0.3178711,0.66015625,0.6738281,-0.006225586,-0.025634766,0.012084961,236 
-0.32043457,2.2583008,2.319336,0.3161621,0.6582031,0.671875,-0.0025634766,-0.027832031,0.010620117,237 
-0.88500977,2.1972656,2.5024414,0.3154297,0.6542969,0.66918945,-0.0025634766,-0.027832031,0.010620117,238 
-2.4108887,2.1514893,2.105713,0.31420898,0.6491699,0.6657715,-0.009521484,-0.025268555,0.016113281,239 
-3.2196045,1.8463135,1.4190674,0.3137207,0.6455078,0.66259766,-0.009521484,-0.025268555,0.016113281,240 
-4.272461,1.5106201,1.2207031,0.31274414,0.6437988,0.6594238,-0.009521484,-0.025268555,0.016113281,241 
-5.8288574,1.3885498,1.0681152,0.31225586,0.6437988,0.65527344,-0.010253906,-0.026733398,0.012084961,242 
-6.1950684,1.5563965,1.0986328,0.3112793,0.64697266,0.65185547,-0.010253906,-0.026733398,0.012084961,243 
-6.1950684,1.8920898,1.4343262,0.31054688,0.65283203,0.6491699,-0.006591797,-0.026000977,0.012451172,244 
-5.279541,2.1514893,1.6326904,0.3095703,0.6594238,0.6479492,-0.006591797,-0.026000977,0.012451172,245 
-4.4403076,2.7008057,1.9226074,0.3083496,0.6647949,0.6472168,-0.006591797,-0.026000977,0.012451172,246 
-3.4332275,2.5482178,1.9989014,0.30786133,0.66748047,0.64697266,-0.0007324219,-0.026000977,0.0087890625,247 
-2.0751953,3.2958984,2.319336,0.30688477,0.66796875,0.64697266,-0.0007324219,-0.026000977,0.0087890625,248 
-0.88500977,3.9367676,1.663208,0.3059082,0.6669922,0.6477051,-0.008056641,-0.024536133,0.010986328,249 
-0.38146973,3.9978027,0.8087158,0.3059082,0.6640625,0.64868164,-0.008056641,-0.024536133,0.010986328,250 
-0.015258789,4.3792725,0.579834,0.30688477,0.6616211,0.6503906,-0.008056641,-0.024536133,0.010986328,251 
-0.4272461,4.211426,0.38146973,0.3083496,0.6594238,0.65112305,-0.010253906,-0.024169922,0.010620117,252 
-1.2817383,3.7231445,0.5950928,0.31030273,0.6574707,0.65283203,-0.010253906,-0.024169922,0.010620117,253 
-1.953125,3.3111572,0.93078613,0.3112793,0.6557617,0.6533203,-0.0014648438,-0.02709961,0.014282227,254 
-1.9989014,2.822876,1.0070801,0.3112793,0.6557617,0.65283203,-0.0014648438,-0.02709961,0.014282227,255 
-1.6479492,3.2348633,1.2512207,0.31079102,0.65771484,0.6516113,-0.0014648438,-0.02709961,0.014282227,0 
-1.373291,3.189087,1.0986328,0.31103516,0.66064453,0.6513672,-0.0021972656,-0.026367188,0.012084961,1 
-0.8544922,3.3569336,1.4190674,0.31225586,0.6608887,0.6516113,-0.0021972656,-0.026367188,0.012084961,2 
-0.6866455,2.2277832,1.159668,0.31323242,0.6599121,0.6520996,-0.005126953,-0.024902344,0.012817383,3 
-1.0528564,1.7852783,1.6174316,0.31298828,0.65893555,0.6520996,-0.005126953,-0.024902344,0.012817383,4 
-0.7324219,2.0751953,1.9378662,0.31323242,0.65893555,0.6516113,-0.005126953,-0.024902344,0.012817383,5 
-0.7171631,1.6479492,1.7700195,0.31298828,0.66015625,0.65063477,-0.006225586,-0.025634766,0.018310547,6 
0.015258789,1.2207031,2.2277832,0.31103516,0.66064453,0.6501465,-0.006225586,-0.025634766,0.018310547,7 
0.0,1.3275146,1.5716553,0.30932617,0.66064453,0.6516113,0.00036621094,-0.026367188,0.012084961,8 
0.4119873,1.5106201,1.6021729,0.30737305,0.6608887,0.65283203,0.00036621094,-0.026367188,0.012084961,9 
0.6561279,2.456665,1.5258789,0.30664062,0.6608887,0.6538086,0.00036621094,-0.026367188,0.012084961,10 
0.30517578,2.5939941,0.9460449,0.30615234,0.6608887,0.65356445,-0.0025634766,-0.027832031,0.013549805,11 
0.045776367,2.8533936,0.869751,0.30639648,0.6599121,0.65356445,-0.0025634766,-0.027832031,0.013549805,12 
0.1373291,3.3416748,0.74768066,0.30688477,0.65893555,0.6530762,-0.0076904297,-0.024902344,0.01171875,13 
0.1373291,3.4484863,0.50354004,0.3071289,0.6582031,0.65356445,-0.0076904297,-0.024902344,0.01171875,14 
0.18310547,3.2348633,0.50354004,0.30786133,0.6586914,0.65405273,-0.0076904297,-0.024902344,0.01171875,15 
0.32043457,3.5247803,-0.19836426,0.30908203,0.65893555,0.6555176,-0.010253906,-0.024536133,0.013183594,16 
0.30517578,3.6010742,-0.18310547,0.30932617,0.6591797,0.65625,-0.010253906,-0.024536133,0.013183594,17 
0.61035156,4.043579,-0.39672852,0.30981445,0.6594238,0.65625,0.006958008,-0.02709961,0.012451172,18 
0.15258789,3.540039,-0.579834,0.3100586,0.6591797,0.6555176,0.006958008,-0.02709961,0.012451172,19 
-0.16784668,2.960205,-0.15258789,0.30981445,0.66015625,0.6550293,0.006958008,-0.02709961,0.012451172,20 
0.2746582,2.8839111,0.18310547,0.3095703,0.66064453,0.65356445,0.0018310547,-0.028564453,0.013183594,21 
-0.22888184,2.7160645,0.1373291,0.30932617,0.6608887,0.6530762,0.0018310547,-0.028564453,0.013183594,22 
0.10681152,3.2348633,-0.061035156,0.30859375,0.65966797,0.65234375,-0.004760742,-0.02709961,0.013916016,23 
0.22888184,2.9907227,-0.30517578,0.3083496,0.6591797,0.6516113,-0.004760742,-0.02709961,0.013916016,24 
0.4119873,3.1738281,-0.045776367,0.30859375,0.65893555,0.65063477,-0.004760742,-0.02709961,0.013916016,25 
0.1373291,3.3721924,-0.39672852,0.30859375,0.65844727,0.6491699,-0.005859375,-0.024902344,0.011352539,26 
-0.19836426,3.6010742,-0.39672852,0.30981445,0.65722656,0.6491699,-0.005859375,-0.024902344,0.011352539,27 
-0.22888184,3.540039,-0.21362305,0.3100586,0.657959,0.64941406,0.0036621094,-0.029663086,0.010253906,28 
0.36621094,3.0975342,0.10681152,0.31079102,0.6586914,0.64941406,0.0036621094,-0.029663086,0.010253906,29 
0.33569336,3.5095215,-0.21362305,0.31030273,0.6604004,0.64990234,0.0036621094,-0.029663086,0.010253906,30 
-5.645752,7.5683594,-0.76293945,0.30786133,0.66796875,0.6513672,0.004760742,-0.028198242,0.0146484375,31 
-18.90564,13.473511,-4.1656494,0.30419922,0.6843262,0.6567383,0.004760742,-0.028198242,0.0146484375,32 
-32.058716,20.202637,-8.346558,0.29858398,0.7006836,0.66552734,0.08862305,-0.0234375,0.011352539,33 
-29.006958,20.980835,-13.595581,0.30029297,0.71191406,0.69506836,-0.005126953,-0.0234375,0.011352539,34 
-28.701782,20.27893,-18.920898,0.30371094,0.7055664,0.71435547,-0.005126953,-0.0234375,0.011352539,35 
-29.525757,16.37268,-24.169922,0.30200195,0.6765137,0.70092773,-0.010620117,-0.030029297,0.016113281,36 
-24.627686,15.960693,-29.11377,0.2932129,0.6442871,0.6640625,-0.010620117,-0.030029297,0.016113281,37 
-18.173218,21.28601,-31.311035,0.28320312,0.6320801,0.6320801,-0.010620117,-0.032592773,0.01940918,38 
-13.977051,29.724121,-30.578613,0.28149414,0.64331055,0.60668945,-0.009155273,-0.032592773,0.01940918,39 
-9.3688965,33.26416,-26.443481,0.2919922,0.6665039,0.59594727,-0.009155273,-0.032592773,0.01940918,40 
-3.250122,34.576416,-23.513794,0.31274414,0.6804199,0.5986328,-0.01574707,-0.028930664,0.017944336,41 
0.8239746,29.907227,-18.90564,0.33935547,0.68310547,0.60424805,-0.01574707,-0.028930664,0.017944336,42 
6.790161,25.405884,-13.290405,0.3564453,0.68408203,0.609375,-0.01574707,-0.028930664,0.020141602,43 
11.962891,19.866943,-9.384155,0.36914062,0.68115234,0.60595703,-0.017944336,-0.030029297,0.020141602,44 
16.708374,13.580322,-4.6691895,0.3762207,0.67163086,0.60058594,-0.017944336,-0.030029297,0.020141602,45 
20.53833,8.514404,0.45776367,0.37768555,0.6582031,0.5996094,-0.017944336,-0.030395508,0.016479492,46 
23.361206,7.171631,4.2266846,0.37646484,0.64501953,0.59936523,-0.017944336,-0.030395508,0.016479492,47 
26.687622,-1.4953613,7.1258545,0.37304688,0.6308594,0.6020508,-0.017944336,-0.030395508,0.016479492,48 
28.48816,-5.264282,10.101318,0.36914062,0.6196289,0.60961914,-0.0146484375,-0.030029297,0.018310547,49 
27.694702,-9.3688965,13.153076,0.36572266,0.61083984,0.61865234,-0.0146484375,-0.030029297,0.018310547,50 
24.154663,-13.458252,15.609741,0.36547852,0.6057129,0.6286621,-0.017578125,-0.028930664,0.01574707,51 
18.218994,-17.822266,18.478394,0.36523438,0.60668945,0.638916,-0.017578125,-0.028930664,0.01574707,52 
12.008667,-20.904541,20.843506,0.3623047,0.6179199,0.64941406,-0.017578125,-0.028930664,0.01574707,53 
7.3242188,-22.140503,22.476196,0.35742188,0.63427734,0.65625,-0.01940918,-0.026000977,0.013916016,54 
3.7231445,-23.162842,23.07129,0.35107422,0.6533203,0.6608887,-0.01940918,-0.026000977,0.013916016,55 
1.9989014,-22.888184,23.1781,0.3425293,0.6657715,0.6628418,-0.013916016,-0.026367188,0.01574707,56 
0.79345703,-21.514893,22.537231,0.3330078,0.6723633,0.6635742,-0.013916016,-0.026367188,0.01574707,57 
3.8757324,-18.997192,20.431519,0.32226562,0.67407227,0.6628418,-0.013916016,-0.026367188,0.01574707,58 
-0.7171631,-16.113281,18.325806,0.3137207,0.6726074,0.6608887,-0.008056641,-0.02746582,0.013183594,59 
-0.9613037,-13.442993,15.258789,0.30615234,0.6711426,0.6586914,-0.008056641,-0.02746582,0.013183594,60 
-0.030517578,-10.269165,12.329102,0.3005371,0.67163086,0.65722656,-0.0076904297,-0.02709961,0.0076904297,61 
0.6561279,-7.2631836,9.674072,0.29760742,0.6699219,0.65527344,-0.0076904297,-0.02709961,0.0076904297,62 
1.3122559,-3.90625,6.713867,0.29589844,0.6689453,0.65405273,-0.0076904297,-0.02709961,0.0076904297,63 
2.822876,-1.1901855,3.982544,0.29467773,0.6682129,0.6538086,-0.006225586,-0.026000977,0.013549805,64 
3.8146973,0.79345703,1.5869141,0.29541016,0.6682129,0.6538086,-0.006225586,-0.026000977,0.013549805,65 
4.852295,3.4179688,-0.061035156,0.29614258,0.6682129,0.6533203,0.0018310547,-0.02746582,0.017211914,66 
