GX, GY, GZ, AX, AY, AZ, MX, MY, MZ, TS, tags
-0.30517578,-0.5645752,2.532959,-0.46020508,0.31860352,0.7648926,-0.13989258,0.27282715,-0.21350098,159 
0.6866455,-0.8239746,3.2806396,-0.47094727,0.32543945,0.7675781,-0.13989258,0.27282715,-0.21350098,160 
0.45776367,-0.6866455,3.7078857,-0.48266602,0.3334961,0.7685547,-0.13879395,0.27319336,-0.20910645,161 
6.3934326,-0.9765625,4.837036,-0.48950195,0.3383789,0.7727051,-0.13879395,0.27319336,-0.20910645,162 
8.102417,-1.2664795,5.92041,-0.49487305,0.34033203,0.7770996,-0.13952637,0.27246094,-0.21130371,163 
11.077881,-2.456665,5.508423,-0.4946289,0.3408203,0.78222656,-0.13952637,0.27246094,-0.21130371,164 
9.689331,-2.7160645,4.2266846,-0.50097656,0.33544922,0.78808594,-0.13952637,0.27246094,-0.21130371,165 
6.92749,-3.0670166,3.540039,-0.5124512,0.32861328,0.79467773,-0.13806152,0.27355957,-0.2109375,166 
4.776001,0.076293945,1.449585,-0.52612305,0.32592773,0.80322266,-0.13696289,0.2746582,-0.21020508,168 
3.9215088,3.0670166,2.2583008,-0.529541,0.32421875,0.798584,-0.13696289,0.2746582,-0.21020508,169 
4.333496,5.1574707,3.768921,-0.5288086,0.32299805,0.7902832,-0.13696289,0.2746582,-0.21020508,170 
5.508423,5.3253174,5.050659,-0.5185547,0.3232422,0.78271484,-0.13842773,0.27722168,-0.21130371,171 
6.8511963,2.7618408,5.340576,-0.50024414,0.32470703,0.7800293,-0.13842773,0.27722168,-0.21130371,172 
8.804321,-0.289917,5.3710938,-0.47802734,0.32470703,0.77685547,-0.13623047,0.27319336,-0.2142334,173 
11.108398,-4.5928955,6.210327,-0.4633789,0.3244629,0.7722168,-0.13623047,0.27319336,-0.2142334,174 
13.656616,-9.857178,7.507324,-0.45410156,0.32421875,0.77001953,-0.13623047,0.27319336,-0.2142334,175 
10.406494,-15.823364,5.8898926,-0.4609375,0.3239746,0.7866211,-0.13293457,0.27282715,-0.21386719,176 
5.5389404,-17.944336,3.0822754,-0.4909668,0.32666016,0.8005371,-0.13293457,0.27282715,-0.21386719,177 
10.772705,-21.148682,1.7089844,-0.5151367,0.33325195,0.8022461,-0.1340332,0.27575684,-0.21386719,178 
14.343262,-17.623901,0.10681152,-0.5209961,0.33276367,0.8076172,-0.1340332,0.27575684,-0.21386719,179 
11.062622,-9.170532,0.38146973,-0.53222656,0.31811523,0.80200195,-0.1340332,0.27575684,-0.21386719,180 
6.92749,-3.0059814,2.8686523,-0.55371094,0.30249023,0.7890625,-0.13366699,0.2750244,-0.21606445,181 
5.340576,2.5177002,4.1503906,-0.56396484,0.29589844,0.7800293,-0.13366699,0.2750244,-0.21606445,182 
5.584717,5.7678223,3.6468506,-0.55737305,0.29467773,0.7766113,-0.13366699,0.27722168,-0.21459961,183 
5.6152344,6.576538,2.8533936,-0.53637695,0.2939453,0.77563477,-0.1340332,0.27722168,-0.21459961,184 
4.043579,5.3253174,1.7547607,-0.51831055,0.2932129,0.77441406,-0.1340332,0.27722168,-0.21459961,185 
1.5411377,3.6773682,2.0599365,-0.5065918,0.29589844,0.77612305,-0.13256836,0.27941895,-0.21789551,186 
0.9765625,3.036499,1.9226074,-0.50390625,0.3022461,0.78100586,-0.13256836,0.27941895,-0.21789551,187 
2.746582,0.9460449,2.670288,-0.5058594,0.31176758,0.78564453,-0.13256836,0.27941895,-0.21789551,188 
2.5177002,0.19836426,1.3580322,-0.51342773,0.31884766,0.7939453,-0.13366699,0.2775879,-0.21203613,189 
2.5177002,-1.1749268,0.50354004,-0.52197266,0.32226562,0.80029297,-0.13366699,0.2775879,-0.21203613,190 
3.1433105,-0.22888184,-0.44250488,-0.5288086,0.3190918,0.80322266,-0.13513184,0.2779541,-0.21606445,191 
3.036499,2.746582,-0.2593994,-0.5324707,0.31030273,0.79956055,-0.13513184,0.2779541,-0.21606445,192 
0.62561035,5.9814453,-0.2593994,-0.53637695,0.29956055,0.7902832,-0.13513184,0.2779541,-0.21606445,193 
-0.48828125,8.300781,0.5950928,-0.5385742,0.29345703,0.7807617,-0.13330078,0.27905273,-0.21276855,194 
-0.44250488,9.033203,1.3427734,-0.53393555,0.29345703,0.7751465,-0.13330078,0.27905273,-0.21276855,195 
0.5340576,7.583618,2.0751953,-0.5229492,0.29736328,0.7714844,-0.13330078,0.28125,-0.2142334,196 
0.88500977,5.1727295,1.7089844,-0.5102539,0.30078125,0.7709961,-0.13330078,0.28125,-0.2142334,197 
1.1901855,3.3874512,1.8920898,-0.5012207,0.30297852,0.7714844,-0.13330078,0.28125,-0.2142334,198 
2.3345947,1.5258789,2.3498535,-0.5065918,0.30932617,0.78222656,-0.13256836,0.27868652,-0.21240234,201 
4.7454834,-0.015258789,2.1972656,-0.5349121,0.31884766,0.796875,-0.13476562,0.2783203,-0.21166992,204 
6.1798096,2.822876,1.2054443,-0.52978516,0.31396484,0.79345703,-0.13476562,0.2783203,-0.21166992,205 
1.2359619,6.4697266,2.380371,-0.5361328,0.2956543,0.7734375,-0.1307373,0.2808838,-0.21459961,207 
0.9613037,7.2784424,2.2888184,-0.53344727,0.29736328,0.7714844,-0.1307373,0.2808838,-0.21459961,208 
1.5411377,8.270264,2.2735596,-0.5246582,0.29956055,0.77563477,-0.13256836,0.2816162,-0.21350098,209 
1.0528564,7.6446533,1.9836426,-0.5168457,0.30004883,0.7800293,-0.13256836,0.2816162,-0.21350098,210 
-0.2593994,7.598877,0.9765625,-0.5131836,0.29956055,0.78344727,-0.13146973,0.27941895,-0.21130371,211 
-1.1444092,7.8430176,0.79345703,-0.51123047,0.3017578,0.7854004,-0.13146973,0.27941895,-0.21130371,212 
-0.33569336,7.3394775,1.6174316,-0.5097656,0.30664062,0.78515625,-0.13146973,0.27941895,-0.21130371,213 
1.2664795,5.7525635,2.532959,-0.5065918,0.31176758,0.7849121,-0.1340332,0.27905273,-0.21386719,214 
3.0059814,3.6621094,3.3874512,-0.5046387,0.3149414,0.7836914,-0.1340332,0.27905273,-0.21386719,215 
5.065918,1.7547607,4.562378,-0.50390625,0.31567383,0.78222656,-0.1340332,0.27868652,-0.21057129,216 
6.149292,-1.449585,4.3945312,-0.5031738,0.31274414,0.77978516,-0.13366699,0.27868652,-0.21057129,217 
4.501343,-6.2408447,3.90625,-0.5053711,0.30786133,0.78393555,-0.13366699,0.27868652,-0.21057129,218 
-0.21362305,-2.4719238,1.4953613,-0.5185547,0.3071289,0.7932129,-0.13513184,0.2779541,-0.2142334,219 
1.1138916,-1.0375977,0.90026855,-0.53271484,0.3112793,0.7927246,-0.13513184,0.2779541,-0.2142334,220 
3.7384033,2.090454,0.38146973,-0.5358887,0.31225586,0.79248047,-0.13513184,0.2779541,-0.2142334,221 
2.456665,6.134033,1.739502,-0.53515625,0.30395508,0.7885742,-0.13256836,0.27868652,-0.21459961,222 
0.50354004,8.2092285,1.9073486,-0.5349121,0.29638672,0.7832031,-0.13256836,0.27868652,-0.21459961,223 
-0.5340576,8.377075,1.3122559,-0.53149414,0.29638672,0.77978516,-0.13220215,0.27905273,-0.21643066,224 
0.5645752,6.652832,2.0446777,-0.5227051,0.30371094,0.7780762,-0.13220215,0.27905273,-0.21643066,225 
3.1280518,4.272461,2.5939941,-0.5095215,0.3112793,0.7766113,-0.13220215,0.27905273,-0.21643066,226 
4.5776367,2.1209717,2.5634766,-0.5012207,0.3154297,0.7770996,-0.13220215,0.27868652,-0.21166992,227 
5.004883,-0.10681152,2.3651123,-0.5,0.3173828,0.7770996,-0.13220215,0.27868652,-0.21166992,228 
5.8288574,-0.8087158,2.7923584,-0.50439453,0.31811523,0.7766113,-0.13256836,0.2775879,-0.20800781,229 
5.9661865,-1.449585,2.89917,-0.51171875,0.31762695,0.78149414,-0.13256836,0.2775879,-0.20800781,230 
5.065918,-1.0375977,3.0517578,-0.52075195,0.3173828,0.7883301,-0.13256836,0.2775879,-0.20800781,231 
8.300781,-2.2735596,2.4261475,-0.5229492,0.31884766,0.79003906,-0.13183594,0.27612305,-0.20837402,232 
8.514404,-0.62561035,2.670288,-0.5222168,0.3125,0.7910156,-0.13183594,0.27612305,-0.20837402,233 
6.454468,0.7171631,2.7770996,-0.52563477,0.3010254,0.78881836,-0.12927246,0.28015137,-0.20800781,234 
4.470825,1.083374,3.0212402,-0.5292969,0.29492188,0.7832031,-0.12927246,0.28015137,-0.20800781,235 
4.333496,1.083374,2.9449463,-0.5283203,0.29516602,0.77978516,-0.12927246,0.28015137,-0.20800781,236 
3.0059814,-0.16784668,2.6550293,-0.52734375,0.29614258,0.78149414,-0.13000488,0.27868652,-0.21130371,237 
2.6855469,-0.36621094,2.39563,-0.5280762,0.29760742,0.78515625,-0.13000488,0.27868652,-0.21130371,238 
3.7231445,0.5187988,2.3040771,-0.52441406,0.29833984,0.78686523,-0.1340332,0.28271484,-0.21020508,239 
3.3569336,0.79345703,2.2125244,-0.52319336,0.29614258,0.78686523,-0.1340332,0.28271484,-0.21020508,240 
2.6397705,1.083374,2.7160645,-0.5241699,0.29516602,0.78271484,-0.1340332,0.28271484,-0.21020508,241 
4.6691895,1.3275146,2.8686523,-0.5209961,0.29785156,0.7792969,-0.13000488,0.2783203,-0.20690918,242 
5.4473877,1.5258789,2.746582,-0.51708984,0.29736328,0.77856445,-0.13000488,0.2783203,-0.20690918,243 
5.4016113,0.44250488,2.6550293,-0.51586914,0.2944336,0.7780762,-0.13220215,0.27685547,-0.21496582,244 
4.333496,-0.15258789,2.105713,-0.515625,0.29223633,0.7792969,-0.13220215,0.27685547,-0.21496582,245 
4.272461,-0.6561279,1.3122559,-0.517334,0.29370117,0.779541,-0.13220215,0.27685547,-0.21496582,246 
4.40979,-3.4332275,2.4719238,-0.5205078,0.29736328,0.7783203,-0.12927246,0.2808838,-0.20837402,247 
6.6223145,-5.92041,3.4179688,-0.5202637,0.30517578,0.77978516,-0.12927246,0.2808838,-0.20837402,248 
8.255005,-4.2419434,0.30517578,-0.5214844,0.31079102,0.7800293,-0.12927246,0.2808838,-0.21459961,249 
10.604858,-5.935669,5.7373047,-0.52246094,0.3095703,0.77563477,-0.12963867,0.2779541,-0.21459961,250 
14.602661,-9.460449,5.844116,-0.5036621,0.30566406,0.77978516,-0.12780762,0.27941895,-0.21313477,252 
11.734009,-11.749268,6.942749,-0.50512695,0.29492188,0.78344727,-0.12780762,0.27941895,-0.21313477,253 
3.4332275,-11.09314,5.1727295,-0.5576172,0.28955078,0.7910156,-0.1270752,0.28674316,-0.20910645,255 
5.1574707,-10.025024,3.6010742,-0.56591797,0.2980957,0.7910156,-0.1270752,0.28674316,-0.20910645,0 
7.1105957,-4.91333,1.739502,-0.55737305,0.2993164,0.79296875,-0.12524414,0.2816162,-0.20727539,1 
5.4016113,-0.5340576,1.2207031,-0.5517578,0.29003906,0.78930664,-0.12524414,0.2816162,-0.20727539,2 
2.532959,2.3651123,1.9836426,-0.5539551,0.2763672,0.78222656,-0.12524414,0.2816162,-0.20727539,3 
-0.24414062,4.501343,2.0141602,-0.55615234,0.27075195,0.77612305,-0.12524414,0.28271484,-0.21057129,4 
-0.30517578,5.1574707,1.8615723,-0.5527344,0.27246094,0.7727051,-0.12524414,0.28271484,-0.21057129,5 
-0.015258789,4.9591064,1.3885498,-0.5456543,0.2763672,0.77246094,-0.12487793,0.28234863,-0.20983887,6 
0.47302246,4.5776367,1.0986328,-0.5366211,0.28198242,0.7734375,-0.12487793,0.28234863,-0.20983887,7 
0.50354004,4.0740967,0.77819824,-0.53100586,0.2866211,0.7734375,-0.12487793,0.28234863,-0.20983887,8 
0.93078613,2.7160645,0.9613037,-0.529541,0.29003906,0.7739258,-0.123046875,0.28051758,-0.21057129,9 
1.2359619,2.456665,0.90026855,-0.5300293,0.29345703,0.77441406,-0.123046875,0.28051758,-0.21057129,10 
1.876831,1.3885498,0.869751,-0.532959,0.29492188,0.7770996,-0.12524414,0.2816162,-0.21020508,11 
0.64086914,1.663208,1.1138916,-0.5390625,0.2944336,0.78149414,-0.12524414,0.2816162,-0.21020508,12 
1.739502,1.4801025,0.5340576,-0.5407715,0.29541016,0.78149414,-0.12524414,0.2816162,-0.21020508,13 
1.3427734,3.5858154,0.579834,-0.54174805,0.2932129,0.78271484,-0.12524414,0.28308105,-0.20727539,14 
0.36621094,3.9978027,0.90026855,-0.5456543,0.29077148,0.77978516,-0.12524414,0.28308105,-0.20727539,15 
1.373291,4.211426,1.739502,-0.54467773,0.29248047,0.7746582,-0.12561035,0.2808838,-0.20690918,17 
2.4261475,3.7231445,2.166748,-0.5378418,0.2927246,0.7746582,-0.12561035,0.2808838,-0.20690918,18 
2.0751953,2.090454,2.0141602,-0.53149414,0.29223633,0.7741699,-0.12231445,0.2783203,-0.20727539,19 
2.8533936,0.8392334,1.6784668,-0.5275879,0.2932129,0.7746582,-0.12231445,0.2783203,-0.20727539,20 
3.6010742,0.15258789,2.1362305,-0.5270996,0.29370117,0.77490234,-0.12231445,0.2816162,-0.20910645,21 
4.0130615,-0.32043457,2.4261475,-0.529541,0.29370117,0.7753906,-0.12561035,0.2816162,-0.20910645,22 
4.1656494,-0.19836426,2.5939941,-0.5332031,0.2927246,0.7758789,-0.12561035,0.2816162,-0.20910645,23 
4.623413,-0.21362305,1.9073486,-0.5358887,0.29174805,0.7766113,-0.1237793,0.2845459,-0.20837402,24 
4.699707,-0.6713867,2.7618408,-0.5383301,0.2915039,0.7753906,-0.1237793,0.2845459,-0.20837402,25 
5.79834,0.35095215,3.0212402,-0.5395508,0.29248047,0.77368164,-0.1237793,0.2845459,-0.20947266,26 
6.500244,-0.5340576,3.5858154,-0.5390625,0.29223633,0.77319336,-0.12524414,0.28271484,-0.20947266,27 
6.790161,-1.5106201,3.2653809,-0.5395508,0.28930664,0.7741699,-0.12524414,0.28271484,-0.20947266,28 
4.6081543,-1.9073486,2.670288,-0.5427246,0.28710938,0.77685547,-0.12524414,0.28308105,-0.20910645,29 
2.380371,-2.243042,1.7089844,-0.5488281,0.28442383,0.78100586,-0.12524414,0.28308105,-0.20910645,30 
1.2512207,0.16784668,0.79345703,-0.5554199,0.2841797,0.7832031,-0.12524414,0.28308105,-0.20910645,31 
1.6479492,2.1820068,0.79345703,-0.5546875,0.28588867,0.782959,-0.12194824,0.28344727,-0.2076416,32 
1.0986328,4.3182373,0.5187988,-0.55322266,0.28344727,0.7800293,-0.12194824,0.28344727,-0.2076416,33 
0.21362305,4.79126,1.2969971,-0.5527344,0.2800293,0.77563477,-0.12670898,0.2845459,-0.21057129,34 
0.18310547,4.2419434,1.5716553,-0.5498047,0.28149414,0.7727051,-0.12670898,0.2845459,-0.21057129,35 
0.5950928,4.3029785,1.5106201,-0.54345703,0.2854004,0.7717285,-0.12670898,0.2845459,-0.21057129,36 
0.93078613,3.0212402,1.3580322,-0.5383301,0.28881836,0.7717285,-0.123413086,0.28527832,-0.20910645,37 
0.6713867,1.3427734,1.083374,-0.5361328,0.29101562,0.77319336,-0.123413086,0.28527832,-0.20910645,38 
0.76293945,1.159668,1.0375977,-0.53637695,0.29223633,0.77490234,-0.1237793,0.2816162,-0.21240234,39 
1.6174316,1.8463135,1.1138916,-0.5378418,0.29345703,0.7753906,-0.1237793,0.2816162,-0.21240234,40 
1.9989014,2.609253,1.1138916,-0.54003906,0.29296875,0.7751465,-0.1237793,0.2816162,-0.21240234,41 
2.89917,2.7923584,1.2207031,-0.5419922,0.29052734,0.77441406,-0.123046875,0.28381348,-0.21020508,42 
2.5939941,2.4108887,1.2054443,-0.54345703,0.28735352,0.7739258,-0.123046875,0.28381348,-0.21020508,43 
1.4038086,0.9918213,1.3427734,-0.5461426,0.2849121,0.7741699,-0.123413086,0.28198242,-0.21203613,44 
1.663208,1.449585,1.1444092,-0.546875,0.28515625,0.77612305,-0.123413086,0.28198242,-0.21203613,45 
1.373291,1.8310547,1.0375977,-0.54663086,0.28588867,0.77612305,-0.123413086,0.28198242,-0.21203613,46 
0.74768066,2.7923584,0.8087158,-0.548584,0.28442383,0.7763672,-0.12817383,0.28198242,-0.21057129,47 
-0.030517578,2.960205,0.8392334,-0.55200195,0.2836914,0.77441406,-0.12817383,0.28198242,-0.21057129,48 
0.24414062,2.822876,0.8087158,-0.55200195,0.28637695,0.77441406,-0.12231445,0.27978516,-0.20983887,49 
-0.16784668,3.463745,1.2207031,-0.54956055,0.28710938,0.77563477,-0.12231445,0.27978516,-0.20983887,50 
0.015258789,3.5552979,1.6479492,-0.5473633,0.28564453,0.7751465,-0.12231445,0.27978516,-0.20983887,51 
0.5493164,3.326416,1.5106201,-0.5461426,0.2866211,0.77368164,-0.12524414,0.28527832,-0.21166992,52 
1.0375977,3.3569336,2.029419,-0.54418945,0.28808594,0.77124023,-0.12524414,0.28527832,-0.21166992,53 
1.9989014,3.6010742,2.3040771,-0.5410156,0.28930664,0.7697754,-0.12524414,0.28527832,-0.21130371,54 
2.0751953,2.7008057,2.39563,-0.53759766,0.28930664,0.77075195,-0.123046875,0.28344727,-0.21130371,55 
1.953125,0.9460449,2.4871826,-0.5361328,0.28930664,0.7714844,-0.123046875,0.28344727,-0.21130371,56 
1.0528564,-0.44250488,1.9226074,-0.5385742,0.28808594,0.77441406,-0.12414551,0.28564453,-0.20910645,57 
-1.6021729,-1.2054443,0.579834,-0.546875,0.28637695,0.7805176,-0.12414551,0.28564453,-0.20910645,58 
-2.8686523,0.33569336,-0.8087158,-0.55444336,0.28637695,0.78637695,-0.12414551,0.28564453,-0.20910645,59 
-4.4403076,3.4332275,-2.7313232,-0.56225586,0.28710938,0.7885742,-0.122680664,0.28344727,-0.20654297,60 
-4.196167,6.6986084,-2.7313232,-0.5686035,0.28637695,0.7844238,-0.122680664,0.28344727,-0.20654297,61 
-3.90625,9.658813,-1.4648438,-0.56933594,0.28442383,0.77783203,-0.123413086,0.2841797,-0.21166992,62 
-4.180908,10.879517,0.10681152,-0.56396484,0.28393555,0.76904297,-0.123413086,0.2841797,-0.21166992,63 
-2.380371,9.674072,1.6784668,-0.5397949,0.28710938,0.7570801,-0.12451172,0.2816162,-0.21240234,65 
-1.9683838,7.827759,1.2359619,-0.5283203,0.2890625,0.7558594,-0.12451172,0.2816162,-0.21240234,66 
-0.88500977,5.5236816,0.9765625,-0.5214844,0.2927246,0.7578125,-0.12451172,0.28015137,-0.20800781,67 
0.4272461,3.753662,1.1138916,-0.5192871,0.2993164,0.76123047,-0.12451172,0.28015137,-0.20800781,68 
2.1820068,1.9989014,1.9073486,-0.5209961,0.30566406,0.7636719,-0.12451172,0.28015137,-0.20800781,69 
5.584717,0.579834,3.0517578,-0.5227051,0.31079102,0.7663574,-0.1270752,0.2808838,-0.2076416,70 
7.6293945,-0.5187988,3.4179688,-0.5239258,0.30737305,0.77001953,-0.1270752,0.2808838,-0.2076416,71 
5.1879883,-1.4648438,3.0059814,-0.53466797,0.296875,0.7770996,-0.12451172,0.28051758,-0.21350098,72 
3.6621094,-2.166748,2.0751953,-0.54589844,0.29174805,0.77856445,-0.12451172,0.28051758,-0.21350098,73 
5.065918,-2.0599365,0.50354004,-0.5473633,0.29345703,0.7805176,-0.12451172,0.28051758,-0.21350098,74 
5.0811768,-1.2359619,0.77819824,-0.54418945,0.2927246,0.78027344,-0.12451172,0.28564453,-0.2076416,75 
1.6326904,1.1291504,1.0070801,-0.5546875,0.28686523,0.77563477,-0.12451172,0.28564453,-0.2076416,76 
1.8920898,2.319336,2.6245117,-0.56396484,0.2866211,0.7702637,-0.12561035,0.28344727,-0.2076416,77 
3.036499,3.0212402,2.2277832,-0.5595703,0.2902832,0.7705078,-0.12561035,0.28344727,-0.2076416,78 
3.0517578,4.0283203,1.9683838,-0.55126953,0.2915039,0.77124023,-0.12561035,0.28344727,-0.2076416,79 
3.5247803,2.8839111,2.2277832,-0.54589844,0.29077148,0.77001953,-0.12414551,0.28308105,-0.20947266,80 
3.7841797,1.8005371,2.5177002,-0.5427246,0.2915039,0.76953125,-0.12414551,0.28308105,-0.20947266,81 
3.40271,0.32043457,1.9073486,-0.5407715,0.2915039,0.76904297,-0.12451172,0.28015137,-0.20910645,82 
4.0283203,-2.8533936,2.4108887,-0.53930664,0.29223633,0.7675781,-0.12451172,0.28015137,-0.20910645,83 
5.844116,-6.668091,2.5024414,-0.53125,0.2944336,0.7729492,-0.12451172,0.28015137,-0.20910645,84 
6.9732666,-5.203247,1.2664795,-0.5241699,0.2939453,0.7763672,-0.12634277,0.2841797,-0.20910645,85 
4.196167,-5.2337646,1.5258789,-0.53759766,0.28735352,0.7739258,-0.12634277,0.2841797,-0.20910645,86 
3.5705566,-4.196167,2.166748,-0.5576172,0.28271484,0.77001953,-0.12634277,0.2841797,-0.20800781,87 
4.852295,-1.5411377,1.8463135,-0.56469727,0.28735352,0.7697754,-0.12487793,0.27978516,-0.20800781,88 
6.652832,-0.50354004,2.2125244,-0.5588379,0.2915039,0.7697754,-0.12487793,0.27978516,-0.20800781,89 
6.8511963,-1.3275146,3.250122,-0.55371094,0.2890625,0.76904297,-0.1237793,0.27978516,-0.21020508,90 
4.180908,-3.5705566,3.0670166,-0.5563965,0.28393555,0.76831055,-0.1237793,0.27978516,-0.21020508,91 
2.3651123,-1.953125,2.5787354,-0.56030273,0.28149414,0.7709961,-0.1237793,0.27978516,-0.21020508,92 
2.3345947,-0.45776367,1.663208,-0.56152344,0.28100586,0.7717285,-0.122680664,0.28271484,-0.21240234,93 
1.3275146,1.739502,0.5187988,-0.56347656,0.2800293,0.7734375,-0.122680664,0.28271484,-0.21240234,94 
0.36621094,3.8757324,0.5950928,-0.56640625,0.27929688,0.7729492,-0.122680664,0.28271484,-0.20910645,95 
0.289917,4.5318604,1.2054443,-0.5678711,0.28125,0.77001953,-0.122680664,0.28271484,-0.20910645,96 
1.0986328,4.623413,1.5106201,-0.56469727,0.2849121,0.76782227,-0.122680664,0.28271484,-0.20910645,97 
1.4190674,1.3885498,1.4953613,-0.5488281,0.2849121,0.767334,-0.1204834,0.2779541,-0.21130371,101 
1.2359619,2.0751953,0.9918213,-0.55126953,0.28564453,0.7680664,-0.1204834,0.2779541,-0.21130371,102 
1.4038086,3.3569336,0.90026855,-0.5541992,0.28564453,0.7692871,-0.119384766,0.27941895,-0.21350098,103 
0.33569336,4.043579,1.7852783,-0.5566406,0.28198242,0.7714844,-0.119384766,0.27941895,-0.21350098,104 
-1.373291,5.4473877,0.8544922,-0.560791,0.28173828,0.7709961,-0.12011719,0.27868652,-0.20727539,105 
-0.579834,5.3710938,0.4119873,-0.56103516,0.28637695,0.7685547,-0.12011719,0.27868652,-0.20727539,106 
1.0070801,5.1574707,1.083374,-0.55908203,0.28930664,0.76538086,-0.12011719,0.27868652,-0.20727539,107 
1.2512207,5.3710938,2.029419,-0.5563965,0.28955078,0.76342773,-0.123046875,0.2841797,-0.20800781,108 
2.4108887,4.501343,2.1820068,-0.5529785,0.29003906,0.7631836,-0.123046875,0.2841797,-0.20800781,109 
2.9144287,3.5858154,2.0751953,-0.5473633,0.28955078,0.76464844,-0.12121582,0.28125,-0.21020508,110 
2.746582,3.7384033,2.0446777,-0.545166,0.2890625,0.7663574,-0.12121582,0.28125,-0.21020508,111 
2.9296875,2.8839111,1.4038086,-0.5461426,0.28808594,0.767334,-0.12121582,0.28125,-0.21020508,112 
2.960205,2.4719238,1.373291,-0.5488281,0.28759766,0.76831055,-0.12194824,0.28271484,-0.21203613,113 
3.768921,2.5939941,1.2969971,-0.5505371,0.28710938,0.7675781,-0.12194824,0.28271484,-0.21203613,114 
3.2348633,2.1362305,1.449585,-0.55200195,0.28735352,0.7668457,-0.12194824,0.28344727,-0.21386719,115 
3.2806396,1.9378662,1.7547607,-0.5559082,0.2878418,0.7663574,-0.123413086,0.28344727,-0.21386719,116 
3.7994385,1.5869141,1.876831,-0.5563965,0.28930664,0.7663574,-0.123413086,0.28344727,-0.21386719,117 
4.196167,1.6174316,2.1514893,-0.55566406,0.2890625,0.76782227,-0.1237793,0.28381348,-0.20727539,118 
5.432129,0.33569336,2.0751953,-0.5505371,0.28833008,0.7692871,-0.1237793,0.28381348,-0.20727539,119 
6.942749,-0.5340576,2.2583008,-0.54052734,0.28466797,0.7727051,-0.1237793,0.28381348,-0.20727539,120 
3.1433105,1.4648438,1.3580322,-0.54589844,0.2775879,0.7727051,-0.11608887,0.28344727,-0.21313477,121 
1.9378662,1.3427734,1.5563965,-0.56225586,0.2758789,0.7697754,-0.11608887,0.28344727,-0.21313477,122 
2.9754639,1.8005371,2.029419,-0.5671387,0.2775879,0.7663574,-0.11608887,0.28271484,-0.21057129,123 
1.6937256,2.609253,1.2512207,-0.56640625,0.28173828,0.7685547,-0.11608887,0.28271484,-0.21057129,124 
2.4871826,3.6315918,1.3885498,-0.56274414,0.28710938,0.76831055,-0.11608887,0.28271484,-0.21057129,125 
3.4484863,2.822876,1.7547607,-0.5588379,0.28759766,0.7675781,-0.114990234,0.28601074,-0.20910645,126 
1.6326904,0.93078613,2.380371,-0.55737305,0.28320312,0.7663574,-0.119384766,0.2841797,-0.20800781,128 
1.9378662,1.6021729,1.9836426,-0.5583496,0.2854004,0.76660156,-0.119384766,0.2841797,-0.20800781,129 
2.9754639,1.9226074,1.8463135,-0.5588379,0.2878418,0.76708984,-0.119384766,0.2841797,-0.20800781,130 
3.768921,2.105713,1.953125,-0.55810547,0.28881836,0.76660156,-0.11645508,0.2841797,-0.20983887,131 
4.714966,2.0141602,2.7770996,-0.5563965,0.28759766,0.767334,-0.11645508,0.2841797,-0.20983887,132 
4.4555664,2.5024414,2.609253,-0.5551758,0.2841797,0.7668457,-0.12011719,0.28381348,-0.21020508,133 
3.753662,2.105713,2.105713,-0.5541992,0.28125,0.76708984,-0.12011719,0.28381348,-0.21020508,134 
3.1585693,1.373291,2.1209717,-0.5546875,0.28149414,0.7661133,-0.12011719,0.28381348,-0.21020508,135 
4.0130615,1.3275146,1.9073486,-0.55444336,0.2824707,0.76464844,-0.11791992,0.2874756,-0.20947266,136 
3.829956,1.1138916,1.8920898,-0.55688477,0.28100586,0.765625,-0.11791992,0.2874756,-0.20947266,137 
3.6468506,1.9073486,1.8463135,-0.5605469,0.27905273,0.7668457,-0.11682129,0.28381348,-0.21276855,138 
3.2348633,2.2277832,1.7852783,-0.5629883,0.27685547,0.76708984,-0.11682129,0.28381348,-0.21276855,139 
1.8005371,2.4719238,1.5106201,-0.56396484,0.2763672,0.767334,-0.11682129,0.28381348,-0.21276855,140 
2.7160645,2.7770996,1.4801025,-0.5559082,0.2783203,0.7661133,-0.11975098,0.2841797,-0.20874023,143 
1.5563965,2.4719238,1.1138916,-0.55688477,0.27416992,0.76782227,-0.11975098,0.2841797,-0.20874023,144 
0.6866455,3.6468506,0.5187988,-0.564209,0.27441406,0.77197266,-0.115722656,0.28344727,-0.20690918,146 
0.5340576,5.004883,0.64086914,-0.5678711,0.2775879,0.77197266,-0.115722656,0.28344727,-0.20690918,147 
2.6550293,4.699707,1.4038086,-0.5632324,0.28076172,0.767334,-0.1171875,0.28125,-0.21020508,149 
2.090454,4.058838,1.5563965,-0.56030273,0.27734375,0.765625,-0.1171875,0.28125,-0.21020508,150 
1.1138916,3.9215088,1.7242432,-0.5588379,0.27514648,0.76464844,-0.11791992,0.2849121,-0.20544434,151 
1.0528564,4.3182373,0.76293945,-0.5583496,0.27563477,0.76464844,-0.11791992,0.2849121,-0.20544434,152 
0.16784668,5.0811768,0.6866455,-0.5588379,0.27734375,0.7651367,-0.11791992,0.2849121,-0.20544434,153 
0.061035156,5.065918,1.0070801,-0.56103516,0.27978516,0.765625,-0.11828613,0.2816162,-0.20837402,154 
-0.48828125,4.1503906,2.0141602,-0.5637207,0.2824707,0.76586914,-0.11828613,0.2816162,-0.20837402,155 
-0.19836426,3.7384033,2.5177002,-0.5632324,0.28466797,0.7668457,-0.12084961,0.28381348,-0.20471191,156 
1.373291,3.9978027,1.953125,-0.5593262,0.2861328,0.76660156,-0.12084961,0.28381348,-0.20471191,157 
0.8392334,3.9520264,1.5411377,-0.5576172,0.2824707,0.76782227,-0.12084961,0.28381348,-0.20471191,158 
-0.2746582,4.6691895,1.0528564,-0.5595703,0.27954102,0.76782227,-0.12011719,0.28527832,-0.20983887,159 
-6.225586,0.289917,1.2054443,-0.57958984,0.26953125,0.77685547,-0.1204834,0.2849121,-0.20983887,161 
-13.809204,2.4871826,-1.9073486,-0.60058594,0.27197266,0.7907715,-0.1204834,0.2849121,-0.20983887,162 
-12.908936,9.536743,-6.515503,-0.6027832,0.28979492,0.79663086,-0.1204834,0.2849121,-0.20983887,163 
-9.735107,13.73291,-9.170532,-0.59155273,0.29467773,0.79467773,-0.119384766,0.28051758,-0.20800781,164 
-11.947632,20.736694,-7.873535,-0.5878906,0.28222656,0.7819824,-0.119384766,0.28051758,-0.20800781,165 
-20.248413,36.68213,-5.0811768,-0.5974121,0.26000977,0.7495117,-0.11791992,0.28125,-0.21057129,167 
-18.463135,40.283203,-3.1433105,-0.58496094,0.265625,0.7421875,-0.11791992,0.28125,-0.21057129,168 
-16.76941,39.413452,-2.6855469,-0.5576172,0.27685547,0.7414551,-0.12194824,0.27905273,-0.2076416,169 
-14.556885,35.78186,-3.1433105,-0.5266113,0.28710938,0.7480469,-0.12194824,0.27905273,-0.2076416,170 
-12.680054,27.572632,-3.3569336,-0.50756836,0.29785156,0.75439453,-0.123413086,0.28051758,-0.20800781,171 
-10.1623535,21.026611,-2.7160645,-0.4963379,0.3095703,0.76220703,-0.123413086,0.28051758,-0.20800781,172 
-3.2043457,14.175415,-0.76293945,-0.49023438,0.31811523,0.76538086,-0.123413086,0.28051758,-0.20800781,173 
0.74768066,7.873535,1.159668,-0.4868164,0.32421875,0.76708984,-0.12634277,0.2783203,-0.2076416,174 
6.1035156,4.272461,2.8381348,-0.48657227,0.32666016,0.7648926,-0.12634277,0.2783203,-0.2076416,175 
9.384155,-0.44250488,5.3253174,-0.48999023,0.32421875,0.7597656,-0.12927246,0.27722168,-0.20874023,176 
12.557983,-5.0964355,6.866455,-0.48999023,0.32202148,0.75756836,-0.12927246,0.27722168,-0.20874023,177 
13.717651,-13.381958,7.247925,-0.5,0.31054688,0.7668457,-0.12414551,0.28015137,-0.20983887,179 
11.901855,-15.930176,6.668091,-0.51831055,0.3083496,0.77612305,-0.12414551,0.28015137,-0.20983887,180 
10.559082,-15.350342,5.264282,-0.5390625,0.30688477,0.7890625,-0.12414551,0.28015137,-0.20690918,181 
10.116577,-15.213013,4.058838,-0.5566406,0.30517578,0.7939453,-0.12597656,0.28125,-0.20690918,182 
10.253906,-12.039185,3.1280518,-0.5703125,0.30126953,0.7919922,-0.12597656,0.28125,-0.20690918,183 
10.070801,-7.9040527,3.7078857,-0.57836914,0.29418945,0.7836914,-0.123413086,0.27941895,-0.20874023,184 
8.651733,-2.670288,4.3792725,-0.5827637,0.28295898,0.77124023,-0.123413086,0.27941895,-0.20874023,185 
6.8969727,-0.77819824,5.126953,-0.58203125,0.27563477,0.7619629,-0.123413086,0.27941895,-0.20874023,186 
6.134033,1.0986328,4.6539307,-0.57006836,0.2734375,0.7578125,-0.1204834,0.2816162,-0.20361328,187 
5.783081,1.449585,4.135132,-0.5559082,0.27416992,0.7573242,-0.1204834,0.2816162,-0.20361328,188 
4.989624,1.5563965,3.1433105,-0.54467773,0.27612305,0.7585449,-0.12084961,0.28015137,-0.20581055,189 
5.2490234,0.91552734,2.3498535,-0.53881836,0.28100586,0.76342773,-0.12084961,0.28015137,-0.20581055,190 
5.92041,-1.1138916,1.9073486,-0.5371094,0.28808594,0.767334,-0.12084961,0.28015137,-0.20581055,191 
4.2419434,-1.8615723,2.243042,-0.5383301,0.29418945,0.77075195,-0.12158203,0.28381348,-0.20727539,192 
8.880615,-3.463745,2.0751953,-0.5402832,0.29663086,0.7722168,-0.12158203,0.28381348,-0.20727539,193 
9.384155,-6.5307617,2.5177002,-0.5427246,0.29467773,0.7739258,-0.12194824,0.28381348,-0.20471191,194 
8.453369,-5.41687,2.3345947,-0.548584,0.29052734,0.7758789,-0.12194824,0.28381348,-0.20471191,195 
8.148193,-5.5389404,1.7700195,-0.5554199,0.28637695,0.77563477,-0.12194824,0.28381348,-0.20471191,196 
7.583618,-6.088257,1.2512207,-0.55688477,0.28515625,0.7758789,-0.122680664,0.28308105,-0.20288086,197 
7.8582764,-5.065918,1.5411377,-0.54833984,0.28295898,0.77490234,-0.122680664,0.28308105,-0.20288086,198 
3.5552979,-1.4190674,1.7547607,-0.560791,0.27563477,0.7734375,-0.12194824,0.28271484,-0.20727539,199 
2.7160645,-1.6479492,2.6397705,-0.57836914,0.27490234,0.767334,-0.12194824,0.28271484,-0.20727539,200 
4.40979,-0.77819824,2.8533936,-0.5773926,0.27905273,0.7668457,-0.12194824,0.28271484,-0.20727539,201 
3.768921,1.4190674,1.8615723,-0.57128906,0.28076172,0.76660156,-0.12158203,0.28271484,-0.20727539,202 
3.7841797,1.1291504,1.6174316,-0.56640625,0.28198242,0.7668457,-0.12158203,0.28271484,-0.20727539,203 
4.486084,1.0986328,2.0141602,-0.5637207,0.28222656,0.765625,-0.118652344,0.2841797,-0.20288086,204 
4.837036,1.4953613,2.5482178,-0.56347656,0.28198242,0.7636719,-0.118652344,0.2841797,-0.20288086,205 
3.692627,2.3651123,2.7008057,-0.5637207,0.28125,0.76220703,-0.118652344,0.2841797,-0.20288086,206 
4.348755,2.105713,3.0517578,-0.5644531,0.28100586,0.7631836,-0.12121582,0.2816162,-0.2043457,207 
5.0811768,2.609253,2.3040771,-0.560791,0.2788086,0.7651367,-0.12158203,0.2849121,-0.21057129,209 
4.3182373,2.3345947,2.0141602,-0.56030273,0.2763672,0.767334,-0.12158203,0.2849121,-0.21057129,210 
3.0059814,2.1209717,2.0141602,-0.55981445,0.2746582,0.76782227,-0.12158203,0.2849121,-0.21057129,211 
3.7078857,1.9378662,1.6784668,-0.5593262,0.27392578,0.7685547,-0.12011719,0.28234863,-0.20690918,212 
2.822876,1.6174316,1.2969971,-0.5595703,0.2722168,0.76953125,-0.12011719,0.28234863,-0.20690918,213 
2.105713,1.5716553,1.2817383,-0.5612793,0.27197266,0.7697754,-0.12011719,0.28234863,-0.20947266,214 
1.5258789,1.5106201,1.5106201,-0.564209,0.27172852,0.7692871,-0.1204834,0.2816162,-0.20947266,215 
0.44250488,2.0751953,1.4953613,-0.5678711,0.27197266,0.76904297,-0.1204834,0.2816162,-0.20947266,216 
0.45776367,3.7231445,1.4038086,-0.57055664,0.27563477,0.76831055,-0.11975098,0.28674316,-0.20727539,217 
0.8544922,4.196167,1.7242432,-0.57055664,0.27807617,0.7661133,-0.11975098,0.28674316,-0.20727539,218 
1.3122559,4.8065186,2.105713,-0.56762695,0.27807617,0.7648926,-0.11975098,0.28674316,-0.20727539,219 
0.79345703,5.065918,1.876831,-0.5654297,0.27807617,0.763916,-0.119384766,0.2849121,-0.21130371,220 
1.1749268,5.264282,1.4038086,-0.56347656,0.2788086,0.7626953,-0.119384766,0.2849121,-0.21130371,221 
0.90026855,4.501343,1.5258789,-0.56103516,0.27905273,0.76293945,-0.11975098,0.28564453,-0.20837402,222 
0.9613037,3.4484863,1.449585,-0.55859375,0.27856445,0.76293945,-0.11975098,0.28564453,-0.20837402,223 
0.90026855,2.3345947,1.449585,-0.5554199,0.27807617,0.7644043,-0.11975098,0.28564453,-0.20837402,224 
1.9226074,0.579834,1.7852783,-0.5505371,0.27734375,0.7648926,-0.118652344,0.2849121,-0.21057129,225 
3.6010742,-5.6152344,3.616333,-0.5500488,0.26660156,0.76782227,-0.118652344,0.2849121,-0.21057129,226 
-11.993408,-12.680054,3.3569336,-0.5773926,0.24804688,0.79125977,-0.11791992,0.28637695,-0.21166992,227 
-36.27014,-7.0495605,-4.8980713,-0.6369629,0.24829102,0.8503418,-0.11791992,0.28637695,-0.21166992,228 
-65.50598,3.5705566,-26.519775,-0.7116699,0.28686523,0.91625977,-0.11791992,0.28637695,-0.21166992,229 
-75.33264,33.218384,-37.490845,-0.77734375,0.32373047,0.9729004,-0.11791992,0.28344727,-0.20361328,230 
-68.52722,83.89282,-33.40149,-0.82470703,0.31152344,0.9506836,-0.11791992,0.28344727,-0.20361328,231 
-76.37024,165.00854,5.7525635,-0.84228516,0.1730957,0.763916,-0.123413086,0.27722168,-0.20800781,233 
-90.927124,194.07654,15.487671,-0.79956055,0.14770508,0.68896484,-0.123413086,0.27722168,-0.20800781,234 
-88.760376,196.71631,9.719849,-0.6887207,0.18017578,0.65185547,-0.1303711,0.26953125,-0.20910645,235 
-85.52551,195.755,-0.36621094,-0.56591797,0.22753906,0.6779785,-0.1303711,0.26953125,-0.20910645,236 
-89.904785,188.49182,-8.270264,-0.47143555,0.25610352,0.71875,-0.14465332,0.26696777,-0.20837402,237 
-95.52002,181.73218,-9.918213,-0.4375,0.2841797,0.76342773,-0.14465332,0.26696777,-0.20837402,238 
-85.32715,161.6211,1.3122559,-0.4013672,0.3173828,0.7739258,-0.14465332,0.26696777,-0.20837402,239 
-81.604004,146.16394,0.45776367,-0.359375,0.35424805,0.7741699,-0.1508789,0.2607422,-0.21057129,240 
-59.829712,124.77112,2.3040771,-0.3256836,0.38305664,0.7578125,-0.1508789,0.2607422,-0.21057129,241 
-45.394897,80.88684,5.3100586,-0.2746582,0.3996582,0.7429199,-0.16040039,0.2548828,-0.21276855,242 
-63.40027,51.956177,0.19836426,-0.26000977,0.4128418,0.73706055,-0.16040039,0.2548828,-0.21276855,243 
-37.216187,37.490845,-6.500244,-0.2919922,0.4584961,0.7253418,-0.16040039,0.2548828,-0.21276855,244 
-20.874023,31.677246,-5.203247,-0.3095703,0.47045898,0.72802734,-0.16003418,0.2545166,-0.2109375,245 
-18.539429,23.330688,-3.1585693,-0.31689453,0.4633789,0.7297363,-0.16003418,0.2545166,-0.2109375,246 
-13.565063,18.539429,-3.3721924,-0.32421875,0.45458984,0.7302246,-0.16003418,0.2545166,-0.2109375,247 
-13.000488,16.738892,-5.935669,-0.3293457,0.44360352,0.72998047,-0.16149902,0.25048828,-0.2109375,248 
-11.84082,13.778687,-5.584717,-0.33081055,0.43652344,0.72802734,-0.16149902,0.25048828,-0.2109375,249 
-10.726929,12.466431,-6.210327,-0.33154297,0.43701172,0.7246094,-0.1607666,0.25048828,-0.20910645,250 
-8.590698,12.954712,-7.1258545,-0.33276367,0.44506836,0.72436523,-0.1607666,0.25048828,-0.20910645,251 
-2.380371,13.687134,-5.9051514,-0.33154297,0.45214844,0.7241211,-0.1607666,0.25048828,-0.20910645,252 
5.432129,15.441895,-3.4484863,-0.3239746,0.45776367,0.7192383,-0.16442871,0.2508545,-0.20690918,253 
18.951416,9.3688965,2.1362305,-0.29736328,0.46313477,0.69750977,-0.16442871,0.2508545,-0.20690918,254 
34.484863,-5.279541,14.282227,-0.26464844,0.46606445,0.65625,-0.16479492,0.25305176,-0.20544434,255 
54.91638,-43.151855,30.059814,-0.25317383,0.48120117,0.642334,-0.16479492,0.25305176,-0.20544434,1 
68.02368,-60.943604,30.914307,-0.25585938,0.4958496,0.625,-0.16149902,0.25378418,-0.20910645,2 
80.55115,-55.267334,26.504517,-0.390625,0.48901367,0.90722656,-0.15673828,0.25891113,-0.21130371,4 
84.198,-67.81006,28.320312,-0.57177734,0.43554688,1.0249023,-0.15161133,0.26586914,-0.21240234,7 
86.364746,-64.7583,35.736084,-0.5625,0.3972168,0.9694824,-0.15161133,0.26586914,-0.21240234,8 
85.29663,-60.36377,44.952393,-0.5366211,0.35009766,0.89819336,-0.1439209,0.26989746,-0.21203613,9 
79.574585,-56.991577,51.437378,-0.49414062,0.30126953,0.82543945,-0.1439209,0.26989746,-0.21203613,10 
71.31958,-54.763794,52.642822,-0.453125,0.2524414,0.7766113,-0.1439209,0.26989746,-0.21203613,11 
59.188843,-52.444458,49.972534,-0.41992188,0.21948242,0.7468262,-0.13952637,0.27209473,-0.2175293,12 
46.020508,-51.89514,44.677734,-0.39892578,0.19897461,0.73168945,-0.13952637,0.27209473,-0.2175293,13 
34.057617,-47.454834,38.253784,-0.39648438,0.1940918,0.73291016,-0.1340332,0.2783203,-0.2175293,14 
24.20044,-40.771484,32.043457,-0.4140625,0.20410156,0.7480469,-0.1340332,0.2783203,-0.2175293,15 
18.417358,-31.341553,27.22168,-0.44335938,0.2211914,0.77319336,-0.1340332,0.2783203,-0.2175293,16 
14.877319,-23.05603,25.009155,-0.47851562,0.24169922,0.7998047,-0.1307373,0.2808838,-0.21276855,17 
13.793945,-13.015747,20.568848,-0.5185547,0.25439453,0.82910156,-0.1307373,0.2808838,-0.21276855,18 
10.986328,-3.7384033,14.129639,-0.5541992,0.26000977,0.859375,-0.1307373,0.28051758,-0.21313477,19 
6.6070557,4.547119,8.132935,-0.58813477,0.26220703,0.88134766,-0.1307373,0.28051758,-0.21313477,20 
2.0141602,10.040283,1.2664795,-0.623291,0.26757812,0.89819336,-0.1307373,0.28051758,-0.21313477,21 
2.822876,14.587402,-2.5939941,-0.64990234,0.2746582,0.90600586,-0.12927246,0.28344727,-0.21716309,22 
6.378174,19.073486,-0.2746582,-0.6647949,0.28027344,0.90771484,-0.12927246,0.28344727,-0.21716309,23 
12.496948,24.18518,7.156372,-0.66015625,0.28198242,0.8991699,-0.12927246,0.28344727,-0.21716309,24 
18.981934,26.153564,17.059326,-0.6357422,0.27661133,0.8791504,-0.12963867,0.2841797,-0.21826172,25 
19.28711,26.885986,23.040771,-0.60498047,0.26611328,0.8574219,-0.12963867,0.2841797,-0.21826172,26 
20.004272,26.184082,29.769897,-0.576416,0.25341797,0.8293457,-0.1303711,0.28344727,-0.22192383,27 
15.914917,26.626587,31.38733,-0.54956055,0.23950195,0.80908203,-0.1303711,0.28344727,-0.22192383,28 
15.151978,29.373169,31.661987,-0.52563477,0.23144531,0.7944336,-0.1303711,0.28344727,-0.22192383,29 
5.2948,34.820557,29.830933,-0.51049805,0.22924805,0.7897949,-0.12927246,0.28527832,-0.22265625,30 
3.6468506,39.413452,30.258179,-0.49902344,0.2290039,0.7873535,-0.12927246,0.28527832,-0.22265625,31 
1.6326904,41.137695,31.219482,-0.4868164,0.23120117,0.7871094,-0.13220215,0.28894043,-0.22485352,32 
2.9907227,40.481567,34.973145,-0.47607422,0.2331543,0.7858887,-0.13220215,0.28894043,-0.22485352,33 
4.3182373,34.805298,38.146973,-0.46313477,0.22998047,0.78271484,-0.13220215,0.28894043,-0.22485352,34 
3.8604736,28.808594,38.909912,-0.45336914,0.2241211,0.7871094,-0.13330078,0.29040527,-0.22558594,35 
4.5166016,25.20752,39.123535,-0.45385742,0.21777344,0.79345703,-0.13330078,0.29040527,-0.22558594,36 
3.829956,22.201538,39.993286,-0.4584961,0.21166992,0.79956055,-0.13256836,0.29406738,-0.2277832,37 
3.982544,21.072388,39.596558,-0.46240234,0.20996094,0.8083496,-0.13256836,0.29406738,-0.2277832,38 
5.3710938,20.645142,38.42163,-0.4650879,0.21020508,0.8183594,-0.13256836,0.29406738,-0.2277832,39 
6.4697266,19.546509,37.475586,-0.46435547,0.20947266,0.82592773,-0.13183594,0.29333496,-0.2208252,40 
5.8898926,18.157959,37.67395,-0.46166992,0.20605469,0.8352051,-0.13183594,0.29333496,-0.2208252,41 
4.486084,16.433716,36.68213,-0.4572754,0.20336914,0.83984375,-0.12890625,0.2947998,-0.22705078,42 
0.7324219,14.6484375,37.231445,-0.45239258,0.19921875,0.8442383,-0.12890625,0.2947998,-0.22705078,43 
-5.630493,12.924194,38.55896,-0.4482422,0.19628906,0.8520508,-0.12890625,0.2947998,-0.22705078,44 
-14.099121,9.32312,41.09192,-0.44677734,0.19262695,0.8635254,-0.1303711,0.29370117,-0.22851562,45 
-30.212402,6.6375732,43.899536,-0.45263672,0.19189453,0.875,-0.1303711,0.29370117,-0.22851562,46 
-51.071167,1.7700195,47.27173,-0.48950195,0.18041992,0.8913574,-0.12963867,0.2977295,-0.22631836,47 
-83.602905,20.401001,49.53003,-0.5595703,0.1796875,0.93481445,-0.12963867,0.2977295,-0.22631836,48 
-101.5625,44.174194,46.12732,-0.6208496,0.2097168,0.9304199,-0.12963867,0.2977295,-0.22631836,49 
-119.400024,120.025635,38.55896,-0.6906738,0.19189453,0.7626953,-0.12927246,0.2947998,-0.21826172,52 
-130.20325,162.81128,12.634277,-0.4375,0.15771484,0.60424805,-0.13623047,0.27868652,-0.21936035,55 
-130.9967,130.66101,0.5187988,-0.3161621,0.2109375,0.60131836,-0.13623047,0.27868652,-0.21936035,56 
-119.59839,90.05737,-10.192871,-0.20825195,0.28125,0.6105957,-0.13623047,0.27868652,-0.21936035,57 
-87.142944,47.6532,-12.924194,-0.122802734,0.35083008,0.6569824,-0.14685059,0.27355957,-0.2175293,58 
-67.718506,17.684937,-10.543823,-0.099121094,0.39575195,0.7084961,-0.14685059,0.27355957,-0.2175293,59 
-52.124023,-19.79065,-9.140015,-0.09033203,0.42236328,0.7583008,-0.14794922,0.26550293,-0.21130371,60 
-41.85486,-45.24231,-13.626099,-0.11206055,0.44555664,0.81640625,-0.14794922,0.26550293,-0.21130371,61 
-30.029297,-50.964355,-14.9383545,-0.17529297,0.4650879,0.8664551,-0.14794922,0.26550293,-0.21130371,62 
-17.364502,-33.981323,-18.234253,-0.27197266,0.4868164,0.9147949,-0.14794922,0.26220703,-0.20947266,63 
-2.89917,-14.49585,-27.22168,-0.34472656,0.5187988,0.953125,-0.14794922,0.26220703,-0.20947266,64 
15.533447,-4.623413,-32.852173,-0.38305664,0.5563965,0.95214844,-0.14831543,0.25927734,-0.2076416,65 
40.08484,-12.969971,-30.700684,-0.38134766,0.57666016,0.9042969,-0.14831543,0.25927734,-0.2076416,66 
62.927246,-24.475098,-13.1073,-0.3635254,0.56689453,0.8269043,-0.14831543,0.25927734,-0.2076416,67 
76.416016,-47.042847,3.3721924,-0.33544922,0.52783203,0.7648926,-0.14501953,0.26550293,-0.21240234,68 
83.81653,-63.446045,12.252808,-0.30419922,0.49169922,0.72558594,-0.14501953,0.26550293,-0.21240234,69 
83.99963,-72.79968,9.3688965,-0.2944336,0.45996094,0.7158203,-0.14428711,0.27062988,-0.21386719,70 
93.01758,-73.349,12.619019,-0.3005371,0.42089844,0.7277832,-0.14428711,0.27062988,-0.21386719,71 
79.04053,-94.818115,17.730713,-0.31762695,0.35717773,0.7871094,-0.14282227,0.27648926,-0.21313477,73 
76.52283,-108.36792,18.005371,-0.33691406,0.3527832,0.8154297,-0.14282227,0.27648926,-0.21313477,74 
74.98169,-121.0022,17.623901,-0.36669922,0.3552246,0.8442383,-0.13476562,0.27612305,-0.21679688,75 
75.82092,-130.78308,17.150879,-0.41088867,0.3581543,0.8652344,-0.13476562,0.27612305,-0.21679688,76 
77.194214,-137.52747,17.8833,-0.47753906,0.35302734,0.8779297,-0.13476562,0.27612305,-0.21679688,77 
81.13098,-138.06152,18.829346,-0.54833984,0.33789062,0.88305664,-0.12487793,0.28527832,-0.21716309,78 
87.020874,-73.05908,32.88269,-0.7480469,0.21142578,0.8149414,-0.11755371,0.2911377,-0.21203613,82 
78.567505,-52.642822,37.078857,-0.7470703,0.16821289,0.7944336,-0.1138916,0.29296875,-0.21240234,83 
68.29834,-33.950806,38.619995,-0.7336426,0.1328125,0.7751465,-0.1138916,0.29296875,-0.21240234,84 
55.69458,-11.474609,37.582397,-0.7104492,0.10498047,0.7590332,-0.1138916,0.29296875,-0.2142334,85 
43.21289,4.196167,38.848877,-0.68310547,0.08984375,0.74780273,-0.10510254,0.30249023,-0.2142334,86 
30.86853,17.944336,30.685425,-0.6508789,0.083740234,0.7434082,-0.10510254,0.30249023,-0.2142334,87 
17.440796,24.963379,25.741577,-0.6123047,0.08276367,0.7492676,-0.10583496,0.30395508,-0.21386719,88 
5.8898926,28.060913,18.90564,-0.57958984,0.08691406,0.76708984,-0.10583496,0.30395508,-0.21386719,89 
-4.2877197,27.34375,12.527466,-0.55322266,0.09692383,0.7895508,-0.10583496,0.30395508,-0.21386719,90 
-7.873535,23.864746,6.1950684,-0.5366211,0.10961914,0.810791,-0.10546875,0.30358887,-0.21643066,91 
-15.640259,21.057129,2.1820068,-0.5332031,0.123535156,0.8305664,-0.10546875,0.30358887,-0.21643066,92 
-16.021729,17.608643,-0.22888184,-0.53393555,0.14013672,0.8408203,-0.107666016,0.30322266,-0.21496582,93 
-11.260986,13.916016,-1.4190674,-0.53222656,0.15576172,0.84350586,-0.107666016,0.30322266,-0.21496582,94 
-5.2490234,9.658813,-0.4119873,-0.529541,0.16479492,0.83862305,-0.107666016,0.30322266,-0.21496582,95 
-3.9672852,5.6610107,0.93078613,-0.5319824,0.16308594,0.8378906,-0.107666016,0.3010254,-0.21533203,96 
-8.529663,3.189087,0.77819824,-0.5461426,0.16308594,0.84594727,-0.107666016,0.3010254,-0.21533203,97 
-8.453369,1.8463135,0.015258789,-0.56030273,0.17578125,0.859375,-0.10656738,0.30285645,-0.21459961,98 
-6.668091,0.9765625,-1.5106201,-0.57714844,0.19726562,0.8737793,-0.10656738,0.30285645,-0.21459961,99 
-0.4272461,3.479004,2.8533936,-0.611084,0.20898438,0.8947754,-0.10656738,0.30285645,-0.21459961,100 
-22.720337,3.1433105,-1.3275146,-0.7746582,0.19506836,0.9445801,-0.10473633,0.30212402,-0.21716309,103 
-35.232544,39.779663,-22.476196,-0.7438965,0.15039062,0.9008789,-0.107666016,0.29956055,-0.21203613,106 
-42.663574,61.019897,-19.14978,-0.6921387,0.078125,0.81469727,-0.107666016,0.29956055,-0.21203613,107 
-76.40076,90.286255,-11.398315,-0.6364746,-0.012939453,0.73168945,-0.1105957,0.29626465,-0.2142334,108 
-130.26428,134.21631,2.5787354,-0.62353516,-0.095214844,0.6569824,-0.1105957,0.29626465,-0.2142334,109 
-153.57971,141.15906,5.5236816,-0.5991211,-0.10083008,0.5932617,-0.1105957,0.29626465,-0.2142334,110 
-175.96436,170.47119,-4.486084,-0.56518555,-0.051757812,0.61328125,-0.119384766,0.28967285,-0.21496582,111 
-178.80249,184.17358,-25.039673,-0.548584,0.045166016,0.65185547,-0.119384766,0.28967285,-0.21496582,112 
-156.29578,174.057,-33.111572,-0.5131836,0.15454102,0.68603516,-0.119384766,0.27648926,-0.21020508,113 
-124.40491,160.98022,-31.75354,-0.43823242,0.26538086,0.7236328,-0.12597656,0.27648926,-0.21020508,114 
-91.11023,142.4408,-24.719238,-0.36791992,0.3540039,0.75146484,-0.12597656,0.27648926,-0.21020508,115 
-70.72449,108.062744,-20.462036,-0.2956543,0.40966797,0.76123047,-0.13623047,0.27209473,-0.20910645,116 
-56.152344,68.14575,-21.057129,-0.22314453,0.43481445,0.7541504,-0.13623047,0.27209473,-0.20910645,117 
-43.47229,26.367188,-18.981934,-0.19677734,0.4428711,0.74658203,-0.13623047,0.27209473,-0.20910645,118 
-42.73987,-4.928589,-18.692017,-0.20703125,0.4543457,0.74487305,-0.14318848,0.26586914,-0.20727539,119 
-35.980225,-18.371582,-15.808105,-0.2512207,0.4777832,0.74365234,-0.14318848,0.26586914,-0.20727539,120 
-25.848389,-20.980835,-11.886597,-0.29858398,0.51220703,0.73046875,-0.14208984,0.2640381,-0.2006836,121 
-10.437012,-14.190674,-4.714966,-0.32836914,0.53027344,0.6999512,-0.14208984,0.2640381,-0.2006836,122 
7.156372,0.64086914,5.432129,-0.33251953,0.52563477,0.6550293,-0.14208984,0.2640381,-0.2006836,123 
15.24353,1.4038086,20.67566,-0.30810547,0.5090332,0.6184082,-0.14025879,0.2614746,-0.20544434,124 
24.68872,-15.350342,34.210205,-0.27075195,0.5061035,0.5996094,-0.14025879,0.2614746,-0.20544434,125 
33.599854,-26.168823,42.800903,-0.2800293,0.5046387,0.6262207,-0.13806152,0.26586914,-0.20800781,126 
30.151367,-31.829834,40.06958,-0.3269043,0.52075195,0.67626953,-0.13806152,0.26586914,-0.20800781,127 
49.3927,-39.978027,34.51538,-0.38598633,0.5554199,0.7463379,-0.13806152,0.26586914,-0.20800781,128 
71.36536,-47.24121,32.684326,-0.43310547,0.57714844,0.8234863,-0.13513184,0.26513672,-0.20874023,129 
86.18164,-65.216064,31.951904,-0.4753418,0.5720215,0.87646484,-0.13513184,0.26513672,-0.20874023,130 
100.38757,-75.25635,33.53882,-0.5163574,0.54345703,0.91015625,-0.13293457,0.27062988,-0.20800781,131 
104.56848,-79.25415,37.246704,-0.5449219,0.49975586,0.9187012,-0.13293457,0.27062988,-0.20800781,132 
107.08618,-73.8678,42.678833,-0.57128906,0.44702148,0.9111328,-0.13293457,0.27062988,-0.20800781,133 
109.39026,-53.17688,46.569824,-0.5925293,0.39819336,0.8972168,-0.12561035,0.27868652,-0.21643066,134 
68.32886,-13.076782,23.605347,-0.39794922,0.22021484,0.7915039,-0.119384766,0.29699707,-0.21789551,139 
57.34253,-19.546509,13.458252,-0.3869629,0.20385742,0.80444336,-0.119384766,0.29699707,-0.21789551,140 
50.67444,-28.793335,5.279541,-0.3955078,0.19482422,0.8208008,-0.119018555,0.2984619,-0.21972656,141 
47.14966,-38.83362,-0.5493164,-0.41503906,0.1899414,0.8376465,-0.119018555,0.2984619,-0.21972656,142 
41.503906,-42.70935,-8.865356,-0.44458008,0.18920898,0.85961914,-0.119018555,0.2984619,-0.21972656,143 
27.496338,-41.94641,-30.517578,-0.53149414,0.18334961,0.89282227,-0.1171875,0.29919434,-0.22045898,145 
14.99939,-36.514282,-39.16931,-0.5883789,0.18237305,0.8979492,-0.1171875,0.29919434,-0.22045898,146 
6.3171387,-26.382446,-45.150757,-0.640625,0.19018555,0.8967285,-0.11279297,0.29992676,-0.22045898,147 
1.0681152,-13.458252,-43.96057,-0.6821289,0.19824219,0.8881836,-0.11279297,0.29992676,-0.22045898,148 
-2.090454,0.45776367,-39.535522,-0.704834,0.20532227,0.87231445,-0.11608887,0.2984619,-0.2175293,149 
-3.7231445,22.415161,-32.104492,-0.7080078,0.2084961,0.8466797,-0.11608887,0.2984619,-0.2175293,150 
-6.713867,36.17859,-24.536133,-0.6887207,0.20947266,0.8129883,-0.11608887,0.2984619,-0.2175293,151 
-7.461548,45.74585,-16.76941,-0.65356445,0.20581055,0.7866211,-0.119384766,0.29699707,-0.22192383,152 
-5.126953,51.452637,4.699707,-0.56591797,0.24902344,0.7570801,-0.12194824,0.2944336,-0.22192383,154 
-8.148193,47.409058,9.20105,-0.5341797,0.17895508,0.75146484,-0.12194824,0.2944336,-0.22192383,155 
-9.597778,46.325684,12.481689,-0.5109863,0.17651367,0.7607422,-0.12194824,0.2944336,-0.22192383,156 
-7.7819824,46.12732,17.120361,-0.50097656,0.17773438,0.7805176,-0.12597656,0.29626465,-0.21972656,157 
-5.5389404,47.470093,19.760132,-0.4975586,0.17919922,0.80249023,-0.12597656,0.29626465,-0.21972656,158 
-3.0670166,49.545288,22.399902,-0.49853516,0.1809082,0.8222656,-0.12231445,0.29370117,-0.22338867,159 
-1.2817383,51.40686,26.428223,-0.5004883,0.18310547,0.83935547,-0.12231445,0.29370117,-0.22338867,160 
3.9367676,54.214478,29.876709,-0.5031738,0.18725586,0.8503418,-0.12231445,0.29370117,-0.22338867,161 
9.658813,55.770874,33.325195,-0.50097656,0.19140625,0.8574219,-0.12524414,0.29626465,-0.22338867,162 
16.38794,52.520752,33.87451,-0.48535156,0.19702148,0.85961914,-0.12524414,0.29626465,-0.22338867,163 
19.927979,48.110962,33.218384,-0.45166016,0.19677734,0.86157227,-0.12524414,0.29626465,-0.2310791,164 
27.511597,38.146973,31.646729,-0.4140625,0.18920898,0.85913086,-0.12524414,0.29626465,-0.2310791,165 
26.397705,26.229858,28.808594,-0.37939453,0.17675781,0.85791016,-0.12524414,0.29626465,-0.2310791,166 
27.328491,14.022827,25.039673,-0.35498047,0.1665039,0.8552246,-0.1270752,0.3010254,-0.22705078,167 
18.371582,4.0283203,20.462036,-0.34521484,0.16088867,0.8496094,-0.1270752,0.3010254,-0.22705078,168 
14.389038,-2.9754639,15.319824,-0.34570312,0.16113281,0.8461914,-0.12854004,0.3017578,-0.22558594,169 
9.811401,-6.134033,10.513306,-0.35717773,0.16479492,0.84472656,-0.12854004,0.3017578,-0.22558594,170 
5.432129,-4.425049,4.196167,-0.39575195,0.17504883,0.84765625,-0.12670898,0.3046875,-0.22924805,172 
5.3100586,-3.8146973,1.8005371,-0.41186523,0.18066406,0.85058594,-0.12670898,0.3046875,-0.22924805,173 
4.79126,-3.036499,-0.36621094,-0.41870117,0.18432617,0.8522949,-0.1270752,0.30541992,-0.23071289,174 
3.0212402,-5.0964355,-3.1280518,-0.42236328,0.18603516,0.8557129,-0.1270752,0.30541992,-0.23071289,175 
0.15258789,-8.224487,-4.79126,-0.4309082,0.18701172,0.8574219,-0.1270752,0.30541992,-0.23071289,176 
-3.326416,-11.566162,-7.232666,-0.44702148,0.18945312,0.85791016,-0.1274414,0.3013916,-0.22631836,177 
-5.859375,-11.627197,-6.729126,-0.46679688,0.19628906,0.85791016,-0.1274414,0.3013916,-0.22631836,178 
-7.7056885,-11.566162,-8.19397,-0.48339844,0.20703125,0.8557129,-0.1274414,0.3013916,-0.22485352,179 
-8.911133,-11.535645,-10.314941,-0.4946289,0.22021484,0.8527832,-0.12231445,0.30212402,-0.22485352,180 
-10.7421875,-10.055542,-13.198853,-0.50341797,0.22973633,0.8474121,-0.12231445,0.30212402,-0.22485352,181 
-13.214111,-10.650635,-15.487671,-0.5053711,0.23583984,0.8400879,-0.12561035,0.30212402,-0.2241211,182 
-15.441895,-7.461548,-16.63208,-0.50878906,0.24584961,0.83374023,-0.12561035,0.30212402,-0.2241211,183 
-10.971069,-5.6610107,-14.556885,-0.5065918,0.24584961,0.8232422,-0.12561035,0.30212402,-0.2241211,184 
-11.306763,-2.746582,-14.556885,-0.5,0.24072266,0.8100586,-0.12561035,0.29956055,-0.2241211,185 
-9.628296,0.1373291,-12.10022,-0.4741211,0.22509766,0.7910156,-0.12231445,0.29956055,-0.22229004,187 
-3.0212402,1.4801025,-1.3885498,-0.44726562,0.20288086,0.7800293,-0.123046875,0.29296875,-0.22485352,190 
10.269165,-3.036499,6.378174,-0.40307617,0.18896484,0.7739258,-0.1237793,0.29882812,-0.22009277,193 
10.848999,-8.575439,9.643555,-0.39501953,0.17260742,0.7717285,-0.1237793,0.29882812,-0.22009277,194 
11.230469,-14.785767,11.33728,-0.39501953,0.1616211,0.77197266,-0.123413086,0.29553223,-0.22229004,195 
12.22229,-20.599365,12.481689,-0.40161133,0.15551758,0.77441406,-0.123413086,0.29553223,-0.22229004,196 
15.213013,-25.268555,12.72583,-0.40722656,0.1538086,0.7788086,-0.1204834,0.29919434,-0.22631836,197 
20.15686,-30.944824,12.741089,-0.40844727,0.15307617,0.78393555,-0.1204834,0.29919434,-0.22631836,198 
23.529053,-37.017822,12.191772,-0.40307617,0.1508789,0.79248047,-0.1204834,0.29919434,-0.22631836,199 
24.398804,-42.404175,9.94873,-0.39794922,0.14550781,0.80126953,-0.1204834,0.29736328,-0.2241211,200 
24.963379,-48.99597,8.026123,-0.3972168,0.13769531,0.8083496,-0.1204834,0.29736328,-0.2241211,201 
21.1792,-57.037354,4.40979,-0.40527344,0.13183594,0.8166504,-0.119384766,0.30285645,-0.22229004,202 
19.073486,-62.63733,2.5177002,-0.4194336,0.13085938,0.8215332,-0.119384766,0.30285645,-0.22229004,203 
14.556885,-66.604614,-2.8381348,-0.4375,0.13427734,0.8251953,-0.119384766,0.30285645,-0.22229004,204 
14.312744,-67.90161,-3.692627,-0.45385742,0.14111328,0.82836914,-0.11462402,0.3046875,-0.21826172,205 
12.664795,-70.72449,-6.866455,-0.46826172,0.1508789,0.8286133,-0.11462402,0.3046875,-0.21826172,206 
15.762329,-73.791504,-10.360718,-0.47094727,0.16455078,0.8310547,-0.11462402,0.30249023,-0.22155762,207 
16.738892,-77.72827,-14.663696,-0.47387695,0.17407227,0.8400879,-0.10839844,0.30249023,-0.22155762,208 
18.554688,-81.35986,-17.913818,-0.48291016,0.17480469,0.8532715,-0.10839844,0.30249023,-0.22155762,209 
16.204834,-86.883545,-21.68274,-0.5004883,0.16870117,0.87402344,-0.10546875,0.3043213,-0.21606445,210 
11.367798,-90.20996,-24.475098,-0.5305176,0.16040039,0.8930664,-0.10546875,0.3043213,-0.21606445,211 
3.9672852,-98.80066,-26.504517,-0.57250977,0.15795898,0.9025879,-0.10546875,0.3043213,-0.21606445,212 
-22.064209,-148.97156,-47.01233,-0.6130371,0.17358398,0.87109375,-0.09741211,0.30615234,-0.21313477,213 
-25.344849,-151.5503,-30.9906,-0.6875,0.1730957,0.9333496,-0.09741211,0.30615234,-0.21313477,214 
-20.584106,-150.83313,-25.238037,-0.7844238,0.19970703,0.9370117,-0.09265137,0.3043213,-0.2043457,215 
-21.591187,-159.75952,-31.936646,-0.84033203,0.22973633,0.8876953,-0.09265137,0.3043213,-0.2043457,216 
-16.189575,-148.1781,-35.64453,-0.88964844,0.2434082,0.8491211,-0.09265137,0.3043213,-0.2043457,217 
-11.71875,-119.522095,-34.957886,-0.9538574,0.22558594,0.7902832,-0.08862305,0.2980957,-0.19848633,218 
-25.253296,-81.344604,-28.518677,-1.0200195,0.18823242,0.7060547,-0.08862305,0.2980957,-0.19848633,219 
-42.69409,-30.9906,-18.249512,-1.0849609,0.13574219,0.64941406,-0.08093262,0.29663086,-0.18896484,220 
-93.811035,235.76355,-2.609253,-0.7351074,0.30126953,0.5595703,-0.09082031,0.28637695,-0.19335938,226 
-56.21338,241.94336,0.5340576,-0.44067383,0.40893555,0.6550293,-0.10253906,0.2849121,-0.20214844,229 
-23.605347,111.846924,4.470825,-0.14501953,0.42773438,0.7487793,-0.11425781,0.27978516,-0.20617676,232 
-14.221191,63.90381,5.844116,-0.111816406,0.4333496,0.77734375,-0.12487793,0.2783203,-0.20544434,233 
10.284424,-4.0130615,10.116577,-0.19018555,0.45092773,0.8547363,-0.1274414,0.2783203,-0.20544434,235 
24.276733,-20.843506,10.147095,-0.25732422,0.46069336,0.88427734,-0.1274414,0.2783203,-0.20544434,236 
37.338257,-28.289795,10.025024,-0.32348633,0.45751953,0.89990234,-0.1274414,0.2783203,-0.20544434,237 
47.836304,-34.988403,12.176514,-0.38720703,0.4453125,0.9025879,-0.12194824,0.27941895,-0.20617676,238 
56.33545,-42.86194,14.480591,-0.4284668,0.42358398,0.8911133,-0.12194824,0.27941895,-0.20617676,239 
63.36975,-50.53711,17.211914,-0.45922852,0.39794922,0.8725586,-0.12194824,0.27941895,-0.20581055,240 
66.39099,-55.70984,21.072388,-0.48510742,0.36572266,0.8483887,-0.12487793,0.2808838,-0.20581055,241 
65.52124,-56.97632,23.4375,-0.5161133,0.32666016,0.828125,-0.12487793,0.2808838,-0.20581055,242 
62.545776,-50.598145,26.09253,-0.5566406,0.2927246,0.81152344,-0.1204834,0.28527832,-0.20874023,243 
58.044434,-41.09192,27.267456,-0.5913086,0.2631836,0.7907715,-0.1204834,0.28527832,-0.20874023,244 
52.56653,-30.36499,28.320312,-0.61450195,0.23876953,0.7714844,-0.1204834,0.28527832,-0.20874023,245 
48.110962,-18.249512,28.579712,-0.6218262,0.22314453,0.75439453,-0.11206055,0.29223633,-0.21276855,246 
42.404175,-3.9520264,28.869629,-0.6135254,0.20898438,0.7402344,-0.11206055,0.29223633,-0.21276855,247 
34.5459,5.4779053,27.60315,-0.5961914,0.19506836,0.73046875,-0.1105957,0.29370117,-0.21276855,248 
25.619507,14.785767,27.297974,-0.5761719,0.18432617,0.7270508,-0.1105957,0.29370117,-0.21276855,249 
15.975952,22.842407,19.65332,-0.56030273,0.1743164,0.7302246,-0.1105957,0.29370117,-0.21276855,250 
7.873535,28.48816,15.274048,-0.54467773,0.17089844,0.7373047,-0.111694336,0.29553223,-0.2109375,251 
1.6174316,33.813477,10.879517,-0.52319336,0.17260742,0.7487793,-0.111694336,0.29553223,-0.2109375,252 
-1.9836426,37.704468,6.134033,-0.49951172,0.17797852,0.7597656,-0.11206055,0.29736328,-0.21276855,253 
-6.6223145,39.001465,1.9989014,-0.47583008,0.18310547,0.7729492,-0.11206055,0.29736328,-0.21276855,254 
-10.940552,39.718628,-2.7770996,-0.45507812,0.18774414,0.79052734,-0.11206055,0.29736328,-0.21276855,255 
-13.061523,38.101196,-7.156372,-0.4399414,0.19580078,0.80444336,-0.11425781,0.29699707,-0.21533203,0 
-18.341064,15.762329,-23.07129,-0.4099121,0.23217773,0.845459,-0.11791992,0.29516602,-0.21679688,3 
-17.8833,7.019043,-25.802612,-0.41479492,0.24633789,0.85717773,-0.11791992,0.29516602,-0.21679688,4 
-15.289307,-0.8087158,-26.504517,-0.42504883,0.26000977,0.86572266,-0.118652344,0.2944336,-0.21569824,5 
-11.779785,-7.4157715,-26.138306,-0.4399414,0.27246094,0.8664551,-0.118652344,0.2944336,-0.21569824,6 
-6.744385,-9.857178,-24.70398,-0.45751953,0.2783203,0.85961914,-0.1171875,0.28857422,-0.21789551,7 
-2.090454,-10.131836,-21.42334,-0.46801758,0.27905273,0.84350586,-0.1171875,0.28857422,-0.21789551,8 
1.9073486,-10.971069,-18.692017,-0.47045898,0.27416992,0.82470703,-0.1171875,0.28857422,-0.21789551,9 
5.2337646,-13.35144,-16.082764,-0.46166992,0.26660156,0.80493164,-0.1204834,0.29260254,-0.21240234,10 
6.5460205,-24.246216,-14.99939,-0.43554688,0.24902344,0.7817383,-0.1171875,0.28894043,-0.21350098,12 
5.79834,-31.707764,-14.724731,-0.43432617,0.2446289,0.7817383,-0.1171875,0.28894043,-0.21350098,13 
12.496948,-47.042847,-13.122559,-0.46606445,0.25390625,0.80322266,-0.12011719,0.29003906,-0.21606445,15 
19.02771,-51.483154,-9.277344,-0.49316406,0.25756836,0.81640625,-0.12011719,0.29003906,-0.21606445,16 
25.20752,-56.167603,-3.7384033,-0.5253906,0.25463867,0.8261719,-0.12011719,0.29003906,-0.21716309,17 
33.920288,-56.44226,4.5166016,-0.55371094,0.24584961,0.83032227,-0.11352539,0.28967285,-0.21716309,18 
42.907715,-59.249878,12.237549,-0.56103516,0.23095703,0.8234863,-0.11352539,0.28967285,-0.21716309,19 
49.041748,-62.63733,17.8833,-0.55322266,0.20483398,0.8083496,-0.1105957,0.29187012,-0.2109375,20 
48.49243,-64.02588,19.805908,-0.5432129,0.17480469,0.78686523,-0.1105957,0.29187012,-0.2109375,21 
40.771484,-61.431885,17.745972,-0.54296875,0.14648438,0.7644043,-0.1105957,0.29187012,-0.2109375,22 
32.089233,-55.038452,15.045166,-0.5480957,0.125,0.74853516,-0.10656738,0.29663086,-0.21350098,23 
24.673462,-45.97473,12.527466,-0.54956055,0.1184082,0.74487305,-0.10656738,0.29663086,-0.21350098,24 
20.385742,-35.354614,10.116577,-0.54785156,0.12036133,0.7512207,-0.10473633,0.2984619,-0.21203613,25 
14.846802,-28.9917,7.5531006,-0.5456543,0.12866211,0.76293945,-0.10473633,0.2984619,-0.21203613,26 
11.062622,-24.887085,5.3710938,-0.54663086,0.13745117,0.7832031,-0.10473633,0.2984619,-0.21203613,27 
7.965088,-25.650024,1.953125,-0.5522461,0.15161133,0.80322266,-0.10217285,0.29699707,-0.20983887,28 
9.017944,-29.647827,-1.2054443,-0.5649414,0.1706543,0.82006836,-0.10217285,0.29699707,-0.20983887,29 
10.864258,-36.071777,-1.7242432,-0.5800781,0.19018555,0.8383789,-0.095947266,0.2980957,-0.20727539,30 
13.259888,-35.43091,-0.18310547,-0.6035156,0.20092773,0.85424805,-0.095947266,0.2980957,-0.20727539,31 
8.407593,-47.958374,-1.0681152,-0.63549805,0.20874023,0.8503418,-0.095947266,0.2980957,-0.20727539,32 
5.92041,-53.619385,-2.3651123,-0.6669922,0.21679688,0.84106445,-0.095214844,0.2980957,-0.20727539,33 
1.4648438,-51.864624,-4.196167,-0.69970703,0.22583008,0.82543945,-0.095214844,0.2980957,-0.20727539,34 
-6.7749023,-31.219482,-7.080078,-0.76831055,0.24560547,0.7680664,-0.09338379,0.29992676,-0.20397949,36 
-10.620117,-13.320923,-7.0495605,-0.78930664,0.25170898,0.7385254,-0.09338379,0.29992676,-0.20397949,37 
-15.50293,3.768921,-6.5460205,-0.7949219,0.25683594,0.7080078,-0.09411621,0.29992676,-0.1973877,38 
-19.073486,21.80481,-5.722046,-0.7807617,0.2626953,0.6850586,-0.09411621,0.29992676,-0.1973877,39 
-23.391724,37.93335,-5.783081,-0.75146484,0.26782227,0.67529297,-0.092285156,0.29992676,-0.20178223,40 
-26.229858,53.024292,-6.6375732,-0.70532227,0.27416992,0.6743164,-0.092285156,0.29992676,-0.20178223,41 
-28.015137,66.589355,-7.675171,-0.6591797,0.28027344,0.6779785,-0.092285156,0.29992676,-0.20178223,42 
-28.686523,76.01929,-7.8430176,-0.6142578,0.2841797,0.6875,-0.09631348,0.2980957,-0.20288086,43 
-28.121948,80.29175,-11.703491,-0.5686035,0.2861328,0.70092773,-0.09631348,0.2980957,-0.20288086,44 
-25.58899,78.3844,-7.003784,-0.529541,0.28955078,0.71728516,-0.09631348,0.2947998,-0.20654297,45 
-22.583008,72.052,-6.3323975,-0.49023438,0.2932129,0.73828125,-0.1003418,0.2947998,-0.20654297,46 
-18.28003,61.50818,-4.7454834,-0.46289062,0.29663086,0.76342773,-0.1003418,0.2947998,-0.20654297,47 
-11.947632,46.63086,-2.9144287,-0.44311523,0.30004883,0.78515625,-0.10913086,0.29296875,-0.20947266,48 
-1.2207031,28.259277,0.091552734,-0.4243164,0.30249023,0.8022461,-0.10913086,0.29296875,-0.20947266,49 
10.20813,6.072998,3.0670166,-0.41015625,0.30322266,0.81762695,-0.10913086,0.29296875,-0.20947266,50 
20.599365,-16.326904,5.3253174,-0.40820312,0.2980957,0.8300781,-0.106933594,0.2915039,-0.20471191,51 
27.70996,-31.234741,6.7749023,-0.4243164,0.2878418,0.8376465,-0.106933594,0.2915039,-0.20471191,52 
33.26416,-45.013428,8.43811,-0.45263672,0.27368164,0.8293457,-0.10437012,0.29736328,-0.20874023,53 
36.65161,-53.833008,9.658813,-0.49023438,0.2548828,0.81640625,-0.10437012,0.29736328,-0.20874023,54 
37.41455,-56.121826,11.169434,-0.53881836,0.23754883,0.8017578,-0.10437012,0.29736328,-0.20874023,55 
36.712646,-53.894043,12.268066,-0.58374023,0.22094727,0.78271484,-0.10070801,0.29882812,-0.20837402,56 
32.928467,-46.081543,12.802124,-0.5644531,0.20581055,0.7680664,-0.10070801,0.29882812,-0.20837402,57 
30.426025,-33.950806,15.014648,-0.65844727,0.19506836,0.7548828,-0.09741211,0.29882812,-0.20544434,58 
27.832031,-23.05603,16.082764,-0.68066406,0.18432617,0.74560547,-0.09741211,0.29882812,-0.20544434,59 
22.964478,-5.645752,16.75415,-0.6923828,0.17456055,0.7402344,-0.09741211,0.29882812,-0.20544434,60 
16.357422,7.2631836,15.533447,-0.69311523,0.16674805,0.7414551,-0.0970459,0.29992676,-0.20581055,61 
10.147095,18.798828,14.083862,-0.6867676,0.1616211,0.74658203,-0.0970459,0.29992676,-0.20581055,62 
3.5552979,25.421143,15.579224,-0.67041016,0.16210938,0.7529297,-0.091552734,0.30212402,-0.20800781,63 
-0.045776367,29.418945,9.460449,-0.64697266,0.16674805,0.7626953,-0.091552734,0.30212402,-0.20800781,64 
-2.3498535,31.173706,6.439209,-0.61987305,0.17358398,0.7697754,-0.091552734,0.30212402,-0.20800781,65 
-4.3792725,29.830933,3.692627,-0.5895996,0.17895508,0.77368164,-0.09777832,0.30212402,-0.2109375,66 
-5.0354004,25.32959,0.8392334,-0.56469727,0.18530273,0.7763672,-0.09777832,0.30212402,-0.2109375,67 
-6.286621,13.916016,-5.050659,-0.5307617,0.19433594,0.78222656,-0.095581055,0.30615234,-0.20800781,69 
-9.658813,-3.3721924,-12.664795,-0.5385742,0.21728516,0.78686523,-0.099609375,0.30212402,-0.2076416,72 
-7.095337,-6.652832,-12.4053955,-0.5522461,0.22875977,0.7807617,-0.09741211,0.30029297,-0.2076416,73 
-2.746582,-8.407593,-11.09314,-0.5629883,0.23706055,0.77441406,-0.09741211,0.30029297,-0.2076416,74 
0.45776367,-10.467529,-10.665894,-0.5708008,0.24169922,0.767334,-0.09741211,0.30029297,-0.2076416,75 
-0.7019043,-12.771606,-11.703491,-0.57714844,0.24145508,0.763916,-0.09851074,0.29992676,-0.20983887,76 
-5.3863525,-11.810303,-14.450073,-0.5864258,0.23901367,0.763916,-0.09851074,0.29992676,-0.20983887,77 
-9.307861,-10.3302,-16.998291,-0.59521484,0.23901367,0.7636719,-0.09851074,0.30029297,-0.20690918,78 
-11.276245,-9.719849,-19.012451,-0.59887695,0.24487305,0.7609863,-0.10070801,0.30029297,-0.20690918,79 
-10.574341,-9.719849,-19.943237,-0.59643555,0.25097656,0.75634766,-0.10070801,0.30029297,-0.20690918,80 
-13.442993,-19.210815,-21.713257,-0.59765625,0.25268555,0.74975586,-0.10144043,0.30065918,-0.20581055,81 
-8.590698,-11.276245,-12.619019,-0.6098633,0.24243164,0.76782227,-0.10144043,0.30065918,-0.20581055,82 
-4.5928955,-10.681152,-6.9122314,-0.6147461,0.23486328,0.7697754,-0.10144043,0.30065918,-0.20581055,83 
-6.30188,-9.521484,-5.3863525,-0.60791016,0.22631836,0.7751465,-0.09887695,0.29663086,-0.20178223,84 
-7.873535,-7.3394775,-3.1738281,-0.6027832,0.21777344,0.7780762,-0.09887695,0.29663086,-0.20178223,85 
-9.0789795,-6.30188,0.79345703,-0.6152344,0.2109375,0.78149414,-0.09851074,0.29553223,-0.2010498,86 
-8.728027,-3.6621094,7.7819824,-0.63964844,0.20581055,0.7885742,-0.09851074,0.29553223,-0.2010498,87 
-2.2888184,1.7700195,14.49585,-0.65722656,0.21044922,0.78466797,-0.09851074,0.29553223,-0.2010498,88 
3.40271,8.483887,19.989014,-0.65185547,0.21362305,0.7697754,-0.09741211,0.29736328,-0.20361328,89 
5.279541,15.136719,22.79663,-0.63378906,0.20605469,0.7524414,-0.09741211,0.29736328,-0.20361328,90 
0.7324219,17.63916,21.255493,-0.6118164,0.1928711,0.7355957,-0.09887695,0.29736328,-0.20214844,91 
-5.569458,17.944336,16.403198,-0.59277344,0.18237305,0.7297363,-0.09887695,0.29736328,-0.20214844,92 
-11.444092,21.42334,11.413574,-0.57006836,0.18383789,0.7324219,-0.09887695,0.29736328,-0.20214844,93 
-15.914917,22.918701,6.3323975,-0.54833984,0.18945312,0.7373047,-0.099243164,0.29699707,-0.2006836,94 
-20.446777,23.422241,1.5563965,-0.5407715,0.19677734,0.7441406,-0.099243164,0.29699707,-0.2006836,95 
-22.338867,23.468018,-1.1901855,-0.54296875,0.2097168,0.75097656,-0.099243164,0.29736328,-0.2006836,96 
-21.057129,22.994995,-2.822876,-0.5456543,0.22485352,0.7585449,-0.099243164,0.29736328,-0.2006836,97 
-19.256592,21.575928,-4.119873,-0.54589844,0.2409668,0.7663574,-0.099243164,0.29736328,-0.2006836,98 
-19.424438,20.03479,-4.0283203,-0.545166,0.2565918,0.7734375,-0.10290527,0.29296875,-0.2043457,99 
-13.198853,19.058228,-5.4779053,-0.5456543,0.2697754,0.7775879,-0.10290527,0.29296875,-0.2043457,100 
-9.94873,17.27295,-6.6986084,-0.545166,0.28125,0.77685547,-0.10217285,0.29333496,-0.19665527,101 
-7.293701,15.640259,-8.956909,-0.5437012,0.29345703,0.7729492,-0.10217285,0.29333496,-0.19665527,102 
-4.3029785,13.778687,-10.314941,-0.5422363,0.30322266,0.7644043,-0.10217285,0.29333496,-0.19665527,103 
-1.7852783,10.818481,-11.627197,-0.54174805,0.3100586,0.75683594,-0.10253906,0.29187012,-0.20141602,104 
0.8544922,7.019043,-12.34436,-0.5390625,0.31640625,0.75146484,-0.10253906,0.29187012,-0.20141602,105 
4.8828125,2.4108887,-12.145996,-0.5349121,0.31958008,0.7480469,-0.10253906,0.29296875,-0.20397949,106 
7.522583,-2.8076172,-11.886597,-0.5341797,0.3161621,0.74853516,-0.10290527,0.29296875,-0.20397949,107 
8.728027,-8.026123,-10.635376,-0.54345703,0.30786133,0.751709,-0.10290527,0.29296875,-0.20397949,108 
10.055542,-11.886597,-9.048462,-0.5588379,0.3005371,0.7561035,-0.10510254,0.29296875,-0.20251465,109 
12.9852295,-15.24353,-5.5389404,-0.5773926,0.29492188,0.7595215,-0.10510254,0.29296875,-0.20251465,110 
17.333984,-15.975952,-1.1138916,-0.5991211,0.2890625,0.76220703,-0.10510254,0.29296875,-0.20214844,111 
20.355225,-15.563965,2.7923584,-0.6179199,0.28222656,0.7624512,-0.10473633,0.2911377,-0.20214844,112 
22.247314,-13.092041,5.584717,-0.63671875,0.27197266,0.7636719,-0.10473633,0.2911377,-0.20214844,113 
22.827148,-9.384155,8.377075,-0.6533203,0.2631836,0.76538086,-0.10473633,0.29077148,-0.2006836,114 
23.651123,-5.844116,10.5896,-0.6616211,0.25585938,0.76708984,-0.10473633,0.29077148,-0.2006836,115 
24.07837,-1.8310547,12.817383,-0.6640625,0.24804688,0.76586914,-0.10473633,0.29077148,-0.2006836,116 
23.727417,2.2888184,14.862061,-0.66259766,0.24169922,0.7648926,-0.09887695,0.29296875,-0.19628906,117 
20.9198,6.5460205,16.021729,-0.6594238,0.2331543,0.76416016,-0.09887695,0.29296875,-0.19628906,118 
23.345947,11.398315,16.51001,-0.6530762,0.22558594,0.76464844,-0.10107422,0.2947998,-0.20288086,119 
18.310547,16.204834,17.562866,-0.64331055,0.21850586,0.7648926,-0.10107422,0.2947998,-0.20288086,120 
16.082764,20.553589,18.615723,-0.6311035,0.20996094,0.7644043,-0.10107422,0.2947998,-0.20288086,121 
14.465332,24.32251,20.095825,-0.61206055,0.20214844,0.7636719,-0.09741211,0.29992676,-0.20581055,122 
13.076782,26.565552,20.614624,-0.5895996,0.1965332,0.76342773,-0.09741211,0.29992676,-0.20581055,123 
11.33728,28.427124,20.828247,-0.56103516,0.19213867,0.76538086,-0.10144043,0.29882812,-0.20654297,124 
7.1411133,25.543213,16.418457,-0.5065918,0.18530273,0.7734375,-0.10144043,0.29882812,-0.20654297,126 
4.058838,20.950317,13.427734,-0.4909668,0.1821289,0.77978516,-0.099609375,0.29992676,-0.20910645,127 
0.12207031,16.204834,8.895874,-0.48046875,0.18310547,0.78686523,-0.099609375,0.29992676,-0.20910645,128 
-1.9989014,8.529663,4.91333,-0.47631836,0.18896484,0.79248047,-0.10253906,0.29992676,-0.21240234,129 
-2.9907227,0.289917,0.7171631,-0.47998047,0.20019531,0.7961426,-0.10253906,0.29992676,-0.21240234,130 
-2.2277832,-6.942749,-3.0670166,-0.49536133,0.21020508,0.79785156,-0.10253906,0.29992676,-0.21240234,131 
-1.8157959,-11.459351,-5.706787,-0.5185547,0.21728516,0.79711914,-0.10070801,0.29956055,-0.20837402,132 
-2.9754639,-13.595581,-8.300781,-0.54833984,0.21972656,0.7922363,-0.10070801,0.29956055,-0.20837402,133 
-5.2337646,-13.1073,-10.574341,-0.58325195,0.22143555,0.78393555,-0.09741211,0.30212402,-0.2109375,134 
-7.5683594,-10.284424,-11.810303,-0.60913086,0.2265625,0.77685547,-0.09741211,0.30212402,-0.2109375,135 
-7.659912,-6.072998,-11.383057,-0.6298828,0.23242188,0.7709961,-0.09741211,0.30212402,-0.2109375,136 
-7.217407,-1.0528564,-10.498047,-0.64038086,0.23852539,0.765625,-0.09887695,0.2977295,-0.20800781,137 
-5.569458,3.2653809,-8.911133,-0.6411133,0.2434082,0.7614746,-0.09887695,0.2977295,-0.20800781,138 
-4.7302246,6.8511963,-11.627197,-0.63183594,0.2446289,0.76000977,-0.09887695,0.2984619,-0.2043457,139 
-7.6141357,10.787964,-7.6141357,-0.6123047,0.23803711,0.76123047,-0.099975586,0.2984619,-0.2043457,141 
-9.94873,12.954712,-6.9885254,-0.6081543,0.23510742,0.76171875,-0.099975586,0.29626465,-0.2043457,142 
-10.971069,13.458252,-6.92749,-0.60546875,0.23583984,0.76171875,-0.099975586,0.29626465,-0.2043457,143 
-9.613037,14.724731,-5.554199,-0.5996094,0.23950195,0.7631836,-0.099975586,0.29626465,-0.2043457,144 
-6.8969727,14.49585,-3.6773682,-0.5908203,0.24414062,0.7644043,-0.1003418,0.29333496,-0.20690918,145 
-5.859375,18.02063,-2.960205,-0.5817871,0.24804688,0.76782227,-0.1003418,0.29333496,-0.20690918,146 
-5.203247,21.66748,-2.5177002,-0.57470703,0.24804688,0.7680664,-0.103637695,0.2915039,-0.20544434,147 
-2.7770996,16.87622,-0.21362305,-0.5661621,0.24731445,0.7644043,-0.103637695,0.2915039,-0.20544434,148 
-2.6245117,13.946533,-0.6561279,-0.55566406,0.1875,0.76660156,-0.103637695,0.2915039,-0.20544434,149 
-0.48828125,10.726929,-0.74768066,-0.54467773,0.2536621,0.7687988,-0.103637695,0.29223633,-0.20654297,150 
0.38146973,7.369995,0.869751,-0.5432129,0.25561523,0.77441406,-0.103637695,0.29223633,-0.20654297,151 
1.6479492,4.4555664,2.5177002,-0.5522461,0.25610352,0.77905273,-0.10510254,0.2944336,-0.20800781,152 
5.4473877,4.4555664,5.5389404,-0.57250977,0.25561523,0.78271484,-0.10510254,0.2944336,-0.20800781,153 
8.544922,4.3029785,9.140015,-0.59033203,0.25585938,0.7871094,-0.10510254,0.2944336,-0.20800781,154 
11.993408,6.8511963,13.442993,-0.60839844,0.25268555,0.79345703,-0.10180664,0.2947998,-0.20874023,155 
15.74707,7.5531006,17.822266,-0.62841797,0.24658203,0.7973633,-0.10180664,0.2947998,-0.20874023,156 
17.593384,10.20813,21.04187,-0.64501953,0.23925781,0.80126953,-0.10253906,0.2944336,-0.21057129,157 
17.807007,16.067505,23.666382,-0.65649414,0.23022461,0.80126953,-0.10253906,0.2944336,-0.21057129,158 
17.028809,21.16394,25.07019,-0.6611328,0.2199707,0.7973633,-0.10253906,0.2944336,-0.21057129,159 
14.572144,27.313232,23.422241,-0.6557617,0.21166992,0.7922363,-0.103637695,0.2977295,-0.20947266,160 
10.543823,33.37097,21.743774,-0.63720703,0.20581055,0.78637695,-0.103637695,0.2977295,-0.20947266,161 
7.0343018,37.109375,19.546509,-0.6074219,0.20288086,0.77319336,-0.10437012,0.29699707,-0.21643066,162 
2.4871826,38.57422,15.213013,-0.5722656,0.20336914,0.7661133,-0.10437012,0.29699707,-0.21643066,163 
3.7231445,39.94751,14.282227,-0.54345703,0.20092773,0.7583008,-0.10437012,0.29699707,-0.21643066,164 
-4.989624,39.260864,9.902954,-0.51538086,0.19970703,0.7531738,-0.10803223,0.30029297,-0.21203613,165 
-5.722046,39.67285,9.002686,-0.49658203,0.19995117,0.751709,-0.10803223,0.30029297,-0.21203613,166 
-8.239746,35.598755,4.837036,-0.47216797,0.20458984,0.75390625,-0.107299805,0.29919434,-0.21386719,167 
-8.178711,31.37207,1.373291,-0.45874023,0.20874023,0.76708984,-0.107299805,0.29919434,-0.21386719,168 
-7.232666,24.276733,0.90026855,-0.45483398,0.2121582,0.7770996,-0.107299805,0.29919434,-0.21386719,169 
-5.264282,16.799927,-1.159668,-0.4519043,0.21728516,0.78686523,-0.110961914,0.29956055,-0.21386719,170 
-3.8604736,9.70459,-2.7313232,-0.45410156,0.22363281,0.80444336,-0.110961914,0.29956055,-0.21386719,171 
0.9613037,2.9907227,-1.9989014,-0.46679688,0.2277832,0.81030273,-0.110961914,0.29956055,-0.21606445,172 
3.7841797,-2.8533936,-1.4953613,-0.4814453,0.22851562,0.8125,-0.11022949,0.29919434,-0.21606445,173 
7.2784424,-5.8288574,-0.88500977,-0.4970703,0.22680664,0.81396484,-0.11022949,0.29919434,-0.21606445,174 
9.262085,-8.621216,-1.2359619,-0.51171875,0.22167969,0.8088379,-0.10949707,0.29626465,-0.2109375,175 
10.1623535,-10.391235,0.21362305,-0.52685547,0.21362305,0.8051758,-0.10949707,0.29626465,-0.2109375,176 
9.719849,-11.184692,1.0681152,-0.5397949,0.2043457,0.79785156,-0.10949707,0.29626465,-0.2109375,177 
10.20813,-9.857178,3.1585693,-0.55029297,0.1965332,0.79052734,-0.11022949,0.29882812,-0.21203613,178 
11.856079,-8.148193,6.1187744,-0.5515137,0.18774414,0.779541,-0.11022949,0.29882812,-0.21203613,179 
12.8479,-6.7749023,8.575439,-0.5395508,0.17578125,0.7680664,-0.106933594,0.29956055,-0.21386719,180 
12.588501,-6.591797,9.32312,-0.515625,0.1628418,0.75634766,-0.106933594,0.29956055,-0.21386719,181 
9.521484,-8.270264,8.911133,-0.49414062,0.14990234,0.74365234,-0.106933594,0.29956055,-0.21386719,182 
3.9672852,-11.59668,6.866455,-0.47607422,0.140625,0.7351074,-0.106933594,0.29882812,-0.2142334,183 
-0.76293945,-13.916016,3.1738281,-0.45703125,0.14208984,0.7312012,-0.106933594,0.29882812,-0.2142334,184 
-2.5787354,-16.784668,-0.8392334,-0.4411621,0.1496582,0.73413086,-0.10620117,0.29736328,-0.20983887,185 
-3.9367676,-20.019531,-4.8065186,-0.42993164,0.16113281,0.7453613,-0.10620117,0.29736328,-0.20983887,186 
-6.6375732,-23.330688,-9.185791,-0.42993164,0.17236328,0.76416016,-0.10620117,0.29736328,-0.20983887,187 
-8.636475,-28.274536,-13.35144,-0.43945312,0.18408203,0.7890625,-0.103637695,0.30212402,-0.20910645,188 
-9.70459,-33.416748,-17.578125,-0.45581055,0.19848633,0.8149414,-0.103637695,0.30212402,-0.20910645,189 
-10.650635,-38.909912,-20.477295,-0.48046875,0.21289062,0.84277344,-0.104003906,0.29663086,-0.21057129,190 
-9.185791,-45.12024,-21.728516,-0.5090332,0.2277832,0.8708496,-0.104003906,0.29663086,-0.21057129,191 
-4.989624,-53.9093,-21.331787,-0.5444336,0.24682617,0.88500977,-0.104003906,0.29663086,-0.21057129,192 
0.5493164,-63.171387,-20.233154,-0.5878906,0.2626953,0.8864746,-0.10107422,0.29956055,-0.20837402,193 
5.874634,-73.44055,-19.821167,-0.6286621,0.27661133,0.8720703,-0.10107422,0.29956055,-0.20837402,194 
8.804321,-79.62036,-20.385742,-0.6755371,0.28295898,0.8479004,-0.099975586,0.29663086,-0.20471191,195 
7.8430176,-80.50537,-20.41626,-0.71728516,0.2866211,0.81396484,-0.099975586,0.29663086,-0.20471191,196 
5.706787,-72.73865,-22.18628,-0.75878906,0.2902832,0.7792969,-0.099975586,0.29663086,-0.20471191,197 
0.6713867,-59.09729,-21.850586,-0.8017578,0.29077148,0.7434082,-0.09667969,0.29370117,-0.19812012,198 
-4.40979,-40.95459,-20.111084,-0.8342285,0.28881836,0.70458984,-0.09667969,0.29370117,-0.19812012,199 
-9.536743,-14.953613,-17.333984,-0.85302734,0.28637695,0.67578125,-0.09448242,0.29516602,-0.1977539,200 
-12.191772,8.178711,-13.61084,-0.8486328,0.28515625,0.65112305,-0.09448242,0.29516602,-0.1977539,201 
-14.907837,28.22876,-10.7421875,-0.81933594,0.28442383,0.6335449,-0.09448242,0.29516602,-0.1977539,202 
-17.410278,49.66736,-8.010864,-0.77075195,0.28149414,0.63012695,-0.09484863,0.29589844,-0.1977539,203 
-19.241333,66.95557,-6.958008,-0.7023926,0.27929688,0.6352539,-0.09484863,0.29589844,-0.1977539,204 
-20.6604,80.963135,-4.5166016,-0.63964844,0.27539062,0.6484375,-0.09484863,0.29589844,-0.1977539,205 
-22.445679,89.29443,-2.243042,-0.58447266,0.27172852,0.66796875,-0.09667969,0.2915039,-0.1977539,206 
-22.537231,90.4541,0.76293945,-0.5344238,0.27148438,0.69262695,-0.09667969,0.2915039,-0.1977539,207 
-18.692017,84.67102,3.1585693,-0.49926758,0.2746582,0.7236328,-0.10510254,0.29223633,-0.20031738,208 
-14.434814,73.6084,4.79126,-0.46923828,0.28125,0.7607422,-0.10510254,0.29223633,-0.20031738,209 
-3.112793,55.282593,8.361816,-0.43676758,0.28881836,0.80126953,-0.10510254,0.29223633,-0.20031738,210 
9.658813,30.471802,9.506226,-0.40844727,0.29418945,0.83251953,-0.10656738,0.29333496,-0.20910645,211 
22.979736,-3.6010742,9.140015,-0.38476562,0.2927246,0.857666,-0.10656738,0.29333496,-0.20910645,212 
29.327393,-28.320312,6.0424805,-0.3815918,0.2849121,0.8725586,-0.10620117,0.29223633,-0.20581055,213 
32.455444,-50.78125,5.4779053,-0.4074707,0.26733398,0.8659668,-0.10620117,0.29223633,-0.20581055,214 
33.12683,-66.101074,5.584717,-0.4675293,0.25024414,0.8483887,-0.10620117,0.29223633,-0.20581055,215 
32.65381,-73.25745,6.088257,-0.53271484,0.23901367,0.8208008,-0.10217285,0.29223633,-0.20324707,216 
32.974243,-73.85254,7.095337,-0.59350586,0.23168945,0.79003906,-0.10217285,0.29223633,-0.20324707,217 
32.36389,-65.39917,8.285522,-0.6472168,0.22631836,0.76220703,-0.09631348,0.2944336,-0.20031738,218 
30.151367,-49.316406,10.223389,-0.68530273,0.21484375,0.7363281,-0.09631348,0.2944336,-0.20031738,219 
24.978638,-32.27234,11.962891,-0.71313477,0.20141602,0.71850586,-0.09631348,0.2944336,-0.20031738,220 
16.25061,-12.1154785,12.22229,-0.73291016,0.18725586,0.70751953,-0.095214844,0.2977295,-0.2010498,221 
7.4768066,11.077881,11.749268,-0.7380371,0.17602539,0.70166016,-0.095214844,0.2977295,-0.2010498,222 
-1.6784668,26.351929,11.0321045,-0.72924805,0.1706543,0.7006836,-0.09375,0.29663086,-0.20214844,223 
-6.790161,37.704468,9.643555,-0.7011719,0.1730957,0.7067871,-0.09375,0.29663086,-0.20214844,224 
-10.513306,46.49353,7.9345703,-0.6628418,0.1821289,0.7163086,-0.09375,0.29663086,-0.20214844,225 
-12.008667,48.339844,5.8135986,-0.6159668,0.19165039,0.7302246,-0.095214844,0.29956055,-0.20397949,226 
-11.276245,46.0968,3.9215088,-0.576416,0.19970703,0.7480469,-0.095214844,0.29956055,-0.20397949,227 
-9.979248,37.18567,3.036499,-0.5415039,0.20703125,0.76586914,-0.09777832,0.29956055,-0.20507812,228 
-7.2021484,24.810791,1.1749268,-0.5102539,0.21240234,0.78125,-0.09777832,0.29956055,-0.20507812,229 
-5.142212,11.520386,-1.2817383,-0.49194336,0.2163086,0.79541016,-0.09777832,0.29956055,-0.20507812,230 
-2.5177002,-2.7618408,-3.7078857,-0.48486328,0.22338867,0.80493164,-0.10180664,0.29553223,-0.20581055,231 
0.32043457,-12.6953125,-4.2266846,-0.49389648,0.22753906,0.8071289,-0.10180664,0.29553223,-0.20581055,232 
3.1738281,-17.700195,-3.6315918,-0.5187988,0.2277832,0.8017578,-0.10180664,0.29699707,-0.20581055,233 
4.119873,-19.500732,-1.2207031,-0.5539551,0.22338867,0.7922363,-0.099975586,0.29699707,-0.20581055,234 
4.6691895,-18.203735,1.5411377,-0.5930176,0.21948242,0.77856445,-0.099975586,0.29699707,-0.20581055,235 
5.0354004,-13.61084,3.4484863,-0.6196289,0.2175293,0.76782227,-0.10144043,0.29882812,-0.20397949,236 
3.6468506,-9.292603,4.5166016,-0.6357422,0.21826172,0.75756836,-0.10144043,0.29882812,-0.20397949,237 
2.2277832,-3.9215088,4.699707,-0.6418457,0.2199707,0.7512207,-0.10144043,0.29882812,-0.20397949,238 
0.9613037,1.876831,4.8065186,-0.6459961,0.22094727,0.7463379,-0.09887695,0.29516602,-0.20727539,239 
-1.1901855,7.446289,4.623413,-0.64746094,0.22143555,0.74194336,-0.09887695,0.29516602,-0.20727539,240 
-3.3874512,10.818481,3.7078857,-0.64038086,0.22265625,0.73657227,-0.099609375,0.2980957,-0.20874023,241 
-5.065918,11.978149,2.4261475,-0.625,0.22802734,0.73339844,-0.099609375,0.2980957,-0.20874023,242 
-6.4849854,12.512207,0.9918213,-0.6064453,0.23339844,0.73413086,-0.099609375,0.2980957,-0.20874023,243 
-8.361816,10.620117,-1.4190674,-0.59399414,0.23852539,0.736084,-0.09814453,0.29699707,-0.20507812,244 
-10.528564,6.378174,-7.30896,-0.57910156,0.2548828,0.7546387,-0.10070801,0.29626465,-0.20654297,246 
-10.421753,3.1585693,-9.231567,-0.57543945,0.26538086,0.7619629,-0.10070801,0.29626465,-0.20654297,247 
-6.9885254,-0.33569336,-9.536743,-0.57421875,0.27734375,0.76660156,-0.10070801,0.29626465,-0.20654297,248 
-1.2969971,-2.166748,-7.659912,-0.5734863,0.28271484,0.76586914,-0.1003418,0.2947998,-0.20471191,249 
1.8463135,-5.264282,-6.011963,-0.57421875,0.28125,0.76171875,-0.1003418,0.2947998,-0.20471191,250 
3.616333,-5.584717,-3.753662,-0.5805664,0.2697754,0.7590332,-0.09887695,0.29736328,-0.20324707,251 
4.2266846,-3.5552979,-2.1514893,-0.58984375,0.25708008,0.7524414,-0.09887695,0.29736328,-0.20324707,252 
0.4272461,-2.2888184,-2.6550293,-0.60058594,0.23803711,0.7429199,-0.09887695,0.29736328,-0.20324707,253 
-8.117676,-13.320923,-5.783081,-0.62060547,0.2175293,0.7324219,-0.09887695,0.2947998,-0.20214844,254 
-31.311035,-30.532837,-0.45776367,-0.67578125,0.18530273,0.7824707,-0.09887695,0.2947998,-0.20214844,255 
-52.230835,-32.928467,-1.0681152,-0.7380371,0.12695312,0.86987305,-0.09667969,0.2947998,-0.19885254,0 
-53.771973,-13.122559,-10.238647,-0.7504883,0.22509766,0.91918945,-0.09667969,0.2947998,-0.19885254,1 
-57.617188,24.154663,-25.558472,-0.7546387,0.22143555,0.89697266,-0.09667969,0.2947998,-0.19885254,2 
-70.58716,64.51416,-23.773193,-0.79052734,0.14526367,0.8120117,-0.09667969,0.288208,-0.19592285,3 
-93.62793,92.62085,-17.608643,-0.842041,0.07421875,0.71899414,-0.09667969,0.288208,-0.19592285,4 
-114.05945,120.010376,-15.106201,-0.85498047,0.050048828,0.670166,-0.09887695,0.28308105,-0.20178223,5 
-128.26538,145.9961,-21.30127,-0.8071289,0.10253906,0.6477051,-0.09887695,0.28308105,-0.20178223,6 
-116.760254,159.4696,-19.53125,-0.69262695,0.18652344,0.6430664,-0.09887695,0.28308105,-0.20178223,7 
-100.479126,163.16223,-18.478394,-0.5900879,0.26391602,0.6503906,-0.10839844,0.27722168,-0.2010498,8 
-85.113525,155.05981,-15.029907,-0.51123047,0.33276367,0.6628418,-0.10839844,0.27722168,-0.2010498,9 
-68.20679,141.5863,-13.809204,-0.44555664,0.38012695,0.6777344,-0.10839844,0.27722168,-0.20031738,10 
-53.024292,127.56348,-11.047363,-0.3955078,0.4182129,0.6960449,-0.1138916,0.26916504,-0.20031738,11 
-40.115356,107.87964,-9.246826,-0.35888672,0.43774414,0.71533203,-0.1138916,0.26916504,-0.20031738,12 
-26.351929,92.819214,-10.101318,-0.34204102,0.44750977,0.73461914,-0.12670898,0.26660156,-0.20288086,13 
-22.491455,71.8689,-8.132935,-0.3322754,0.4489746,0.751709,-0.12670898,0.26660156,-0.20288086,14 
-13.290405,54.56543,-8.331299,-0.32226562,0.45751953,0.76049805,-0.12670898,0.26660156,-0.20288086,15 
-3.6468506,37.56714,-5.432129,-0.31518555,0.46557617,0.75927734,-0.12854004,0.26843262,-0.2010498,16 
6.378174,20.858765,-1.8920898,-0.30981445,0.4724121,0.74365234,-0.12854004,0.26843262,-0.2010498,17 
39.352417,-11.962891,7.5531006,-0.33862305,0.46533203,0.75268555,-0.12963867,0.26513672,-0.20507812,20 
46.691895,-23.086548,6.7749023,-0.35302734,0.45532227,0.7692871,-0.12817383,0.26733398,-0.20910645,21 
51.589966,-35.78186,3.540039,-0.36669922,0.44091797,0.7927246,-0.12817383,0.26733398,-0.20910645,22 
52.001953,-42.099,0.061035156,-0.390625,0.4255371,0.8156738,-0.12927246,0.2713623,-0.20800781,23 
57.998657,-49.087524,2.6245117,-0.42407227,0.40893555,0.8239746,-0.12927246,0.2713623,-0.20800781,24 
62.683105,-53.756714,7.30896,-0.45288086,0.390625,0.828125,-0.12927246,0.2713623,-0.20800781,25 
67.41333,-56.82373,11.489868,-0.47558594,0.37182617,0.8244629,-0.12670898,0.27355957,-0.20471191,26 
74.5697,-56.19812,19.058228,-0.49536133,0.35375977,0.8166504,-0.12670898,0.27355957,-0.20471191,27 
79.26941,-57.998657,24.047852,-0.50512695,0.3347168,0.80200195,-0.123046875,0.27722168,-0.21020508,28 
85.22034,-58.120728,27.267456,-0.50146484,0.31225586,0.7878418,-0.123046875,0.27722168,-0.21020508,29 
88.42468,-57.937622,29.083252,-0.4963379,0.2866211,0.78100586,-0.123046875,0.27722168,-0.21020508,30 
88.10425,-61.47766,29.418945,-0.4987793,0.25439453,0.77563477,-0.11828613,0.28198242,-0.20947266,31 
83.38928,-62.37793,29.876709,-0.51586914,0.22436523,0.77685547,-0.11828613,0.28198242,-0.20947266,32 
76.09558,-61.660767,28.518677,-0.5427246,0.19799805,0.7805176,-0.11645508,0.288208,-0.20910645,33 
68.618774,-57.44934,28.900146,-0.57543945,0.17382812,0.7871094,-0.11645508,0.288208,-0.20910645,34 
61.37085,-49.972534,28.213501,-0.60717773,0.15844727,0.79345703,-0.11645508,0.288208,-0.20910645,35 
55.862427,-41.44287,28.869629,-0.626709,0.1472168,0.7980957,-0.10546875,0.29333496,-0.20874023,36 
51.330566,-32.62329,28.137207,-0.6333008,0.13696289,0.79785156,-0.10546875,0.29333496,-0.20874023,37 
47.439575,-26.489258,31.066895,-0.62475586,0.12841797,0.7927246,-0.10437012,0.29589844,-0.20837402,38 
41.656494,-20.690918,24.719238,-0.607666,0.11816406,0.78686523,-0.10437012,0.29589844,-0.20837402,39 
34.04236,-16.281128,21.209717,-0.58813477,0.10595703,0.78149414,-0.10437012,0.29589844,-0.20837402,40 
24.536133,-12.420654,17.120361,-0.5678711,0.095214844,0.7751465,-0.103271484,0.30212402,-0.21276855,41 
13.366699,-9.735107,12.390137,-0.5510254,0.09057617,0.7714844,-0.103271484,0.30212402,-0.21276855,42 
5.79834,-7.1868896,7.7667236,-0.5361328,0.09399414,0.77001953,-0.103271484,0.30212402,-0.21276855,43 
-3.3874512,-5.6915283,1.2054443,-0.52368164,0.10595703,0.7727051,-0.1003418,0.30358887,-0.21276855,44 
-9.384155,-3.1738281,-2.8381348,-0.5209961,0.123291016,0.78027344,-0.1003418,0.30358887,-0.21276855,45 
-11.932373,-4.8828125,-5.2490234,-0.52685547,0.13989258,0.7873535,-0.10290527,0.30249023,-0.21313477,46 
-13.99231,-6.286621,-8.117676,-0.53637695,0.15771484,0.798584,-0.10290527,0.30249023,-0.21313477,47 
-12.451172,-9.20105,-9.399414,-0.54711914,0.1772461,0.8093262,-0.10290527,0.30249023,-0.21313477,48 
-15.518188,-13.671875,-10.269165,-0.50146484,0.19165039,0.8178711,-0.10217285,0.30212402,-0.21203613,49 
-9.506226,-17.01355,-10.009766,-0.5839844,0.20361328,0.8251953,-0.10217285,0.30212402,-0.21203613,50 
-7.7667236,-24.017334,-9.048462,-0.60668945,0.21435547,0.8234863,-0.099243164,0.29919434,-0.20910645,51 
-4.257202,-28.747559,-8.758545,-0.6311035,0.22314453,0.8166504,-0.099243164,0.29919434,-0.20910645,52 
-11.795044,-33.081055,-9.918213,-0.6538086,0.23461914,0.8039551,-0.099243164,0.29919434,-0.20910645,53 
-15.426636,-30.273438,-11.001587,-0.6809082,0.24511719,0.79125977,-0.099975586,0.29992676,-0.20800781,54 
-19.180298,-22.81189,-11.688232,-0.7121582,0.25732422,0.77319336,-0.099975586,0.29992676,-0.20800781,55 
-22.964478,-9.338379,-11.352539,-0.7331543,0.2705078,0.7504883,-0.09741211,0.2977295,-0.20837402,56 
-25.009155,6.164551,-10.4522705,-0.7434082,0.28466797,0.7294922,-0.09741211,0.2977295,-0.20837402,57 
-24.337769,20.721436,-9.44519,-0.7355957,0.29492188,0.7080078,-0.09741211,0.2977295,-0.20837402,58 
-23.498535,34.89685,-9.216309,-0.7080078,0.30273438,0.6965332,-0.099243164,0.29699707,-0.20361328,59 
-19.638062,47.698975,-9.918213,-0.66137695,0.30541992,0.69311523,-0.099243164,0.29699707,-0.20361328,60 
-26.672363,55.80139,-11.581421,-0.61621094,0.3046875,0.69311523,-0.10107422,0.2947998,-0.20581055,61 
-29.73938,60.394287,-12.4053955,-0.5739746,0.3022461,0.6984863,-0.10107422,0.2947998,-0.20581055,62 
-30.685425,62.789917,-13.076782,-0.53515625,0.30395508,0.7084961,-0.10107422,0.2947998,-0.20581055,63 
-30.471802,59.921265,-13.809204,-0.5058594,0.31054688,0.72216797,-0.103271484,0.29406738,-0.20910645,64 
-26.000977,51.742554,-13.076782,-0.4790039,0.32006836,0.7390137,-0.103271484,0.29406738,-0.20910645,65 
-18.463135,42.007446,-11.764526,-0.45263672,0.32983398,0.7595215,-0.106933594,0.29223633,-0.20654297,66 
-9.994507,26.870728,-10.299683,-0.4326172,0.3371582,0.78027344,-0.106933594,0.29223633,-0.20654297,67 
-0.5340576,9.231567,-8.300781,-0.41967773,0.3400879,0.79833984,-0.106933594,0.29223633,-0.20654297,68 
26.138306,-34.01184,-0.21362305,-0.45092773,0.31762695,0.8215332,-0.10839844,0.28967285,-0.20983887,71 
43.73169,-60.62317,9.750366,-0.54541016,0.2680664,0.79541016,-0.10437012,0.288208,-0.2076416,74 
43.70117,-61.431885,12.283325,-0.5871582,0.24682617,0.78125,-0.10437012,0.288208,-0.2076416,75 
37.734985,-44.021606,16.036987,-0.67041016,0.20874023,0.75634766,-0.099609375,0.29626465,-0.20544434,77 
33.78296,-30.9906,17.63916,-0.6989746,0.19482422,0.7470703,-0.099609375,0.29626465,-0.20544434,78 
22.598267,2.5024414,17.486572,-0.72314453,0.17260742,0.74194336,-0.099975586,0.29553223,-0.20324707,80 
16.326904,13.015747,16.479492,-0.717041,0.16577148,0.74365234,-0.099975586,0.29553223,-0.20324707,81 
9.628296,23.223877,15.060425,-0.70043945,0.16235352,0.7463379,-0.0970459,0.2984619,-0.20910645,82 
3.2043457,28.457642,11.795044,-0.66796875,0.1640625,0.7504883,-0.0970459,0.2984619,-0.20910645,83 
-3.2043457,31.021118,7.3242188,-0.63061523,0.16992188,0.75512695,-0.09851074,0.29992676,-0.20690918,84 
-9.246826,31.204224,2.746582,-0.5974121,0.1784668,0.7597656,-0.09851074,0.29992676,-0.20690918,85 
-12.802124,30.090332,-1.4648438,-0.57299805,0.18701172,0.7648926,-0.09851074,0.29992676,-0.20690918,86 
-14.526367,26.611328,-3.768921,-0.5593262,0.1965332,0.76904297,-0.099609375,0.29699707,-0.21166992,87 
-11.734009,21.331787,-6.149292,-0.5488281,0.20996094,0.7729492,-0.099609375,0.29699707,-0.21166992,88 
-15.838623,16.403198,-8.773804,-0.5437012,0.22265625,0.7775879,-0.099609375,0.29919434,-0.21240234,89 
-14.785767,11.199951,-9.506226,-0.54248047,0.23510742,0.78125,-0.099609375,0.29919434,-0.21240234,90 
-13.626099,7.751465,-9.490967,-0.546875,0.24389648,0.78344727,-0.099609375,0.29919434,-0.21240234,91 
-12.207031,5.3863525,-8.865356,-0.55444336,0.25,0.78271484,-0.099609375,0.29736328,-0.20617676,92 
-10.635376,4.043579,-7.9803467,-0.5617676,0.25439453,0.77856445,-0.099609375,0.29736328,-0.20617676,93 
-10.20813,0.15258789,-7.8582764,-0.56933594,0.25878906,0.7687988,-0.10070801,0.2944336,-0.20581055,95 
-14.923096,-9.109497,-10.559082,-0.5756836,0.25756836,0.7661133,-0.10070801,0.2944336,-0.20581055,96 
-16.00647,-9.033203,-6.9885254,-0.59399414,0.2536621,0.78027344,-0.103637695,0.29260254,-0.20544434,97 
-14.923096,-0.030517578,-6.072998,-0.6101074,0.25585938,0.7854004,-0.103637695,0.29260254,-0.20544434,98 
-12.969971,4.1046143,-6.362915,-0.61083984,0.25976562,0.77490234,-0.104003906,0.29333496,-0.20507812,99 
-9.44519,9.674072,-5.6152344,-0.5991211,0.25830078,0.76708984,-0.104003906,0.29333496,-0.20507812,100 
-7.8430176,16.220093,-3.6621094,-0.5871582,0.25317383,0.7578125,-0.104003906,0.29333496,-0.20507812,101 
-6.134033,18.1427,-1.4953613,-0.576416,0.24438477,0.7451172,-0.103637695,0.2915039,-0.20507812,102 
-4.135132,17.974854,1.3427734,-0.5605469,0.23754883,0.73828125,-0.103637695,0.2915039,-0.20507812,103 
-3.7841797,14.816284,4.0130615,-0.5439453,0.23535156,0.73583984,-0.103637695,0.28967285,-0.20288086,104 
-1.6326904,11.230469,5.340576,-0.5275879,0.23730469,0.73999023,-0.104003906,0.28967285,-0.20288086,105 
1.2664795,7.461548,6.6375732,-0.51904297,0.24243164,0.7487793,-0.104003906,0.28967285,-0.20288086,106 
4.1656494,4.0893555,7.6141357,-0.5180664,0.24975586,0.7602539,-0.10583496,0.29077148,-0.20654297,107 
8.94165,0.48828125,8.2092285,-0.5222168,0.25708008,0.77197266,-0.10583496,0.29077148,-0.20654297,108 
12.741089,-3.0670166,9.185791,-0.52905273,0.25952148,0.78222656,-0.10583496,0.29077148,-0.20654297,109 
14.221191,-5.1574707,9.82666,-0.5461426,0.25390625,0.7878418,-0.10510254,0.29077148,-0.20507812,110 
15.533447,-5.5389404,10.345459,-0.57788086,0.24731445,0.79052734,-0.10510254,0.29077148,-0.20507812,111 
10.360718,-4.2877197,10.391235,-0.6081543,0.2434082,0.7895508,-0.10473633,0.29077148,-0.20910645,112 
9.674072,-1.1444092,10.055542,-0.63012695,0.24316406,0.7854004,-0.10473633,0.29077148,-0.20910645,113 
8.605957,3.40271,9.887695,-0.6455078,0.24316406,0.7805176,-0.10473633,0.29077148,-0.20910645,114 
7.446289,9.307861,10.345459,-0.65283203,0.24194336,0.77612305,-0.10437012,0.2915039,-0.20947266,115 
4.638672,14.892578,10.3302,-0.6555176,0.23901367,0.7746582,-0.10437012,0.2915039,-0.20947266,116 
1.4190674,20.53833,9.811401,-0.6538086,0.23632812,0.77490234,-0.10437012,0.2915039,-0.20581055,117 
-1.2969971,19.943237,8.94165,-0.6467285,0.23535156,0.7722168,-0.10437012,0.2915039,-0.20581055,118 
-5.126953,25.726318,7.080078,-0.63183594,0.23803711,0.77124023,-0.10437012,0.2915039,-0.20581055,119 
-7.873535,28.701782,4.8675537,-0.6171875,0.24414062,0.7741699,-0.10583496,0.29260254,-0.20727539,120 
-11.703491,40.05432,2.090454,-0.6081543,0.25073242,0.7758789,-0.10583496,0.29260254,-0.20727539,121 
-12.191772,40.390015,2.5939941,-0.60595703,0.2512207,0.767334,-0.10656738,0.2944336,-0.21020508,122 
-15.670776,40.924072,-0.48828125,-0.60498047,0.25439453,0.7702637,-0.10656738,0.2944336,-0.21020508,123 
-18.90564,48.00415,-3.90625,-0.59765625,0.2631836,0.77978516,-0.10656738,0.2944336,-0.21020508,124 
-17.120361,49.118042,-5.126953,-0.58569336,0.2734375,0.782959,-0.10913086,0.2915039,-0.2076416,125 
-14.328003,49.63684,-4.989624,-0.5703125,0.28198242,0.78686523,-0.10913086,0.2915039,-0.2076416,126 
-13.305664,49.331665,-6.5460205,-0.5539551,0.28930664,0.7902832,-0.11352539,0.2878418,-0.2109375,127 
-12.359619,43.289185,-8.911133,-0.53149414,0.2944336,0.7866211,-0.11352539,0.2878418,-0.2109375,128 
-11.886597,38.970947,-11.047363,-0.5126953,0.29711914,0.7858887,-0.11352539,0.2878418,-0.2109375,129 
-11.489868,27.84729,-11.993408,-0.49951172,0.29638672,0.78637695,-0.11462402,0.28674316,-0.21166992,130 
-11.0321045,22.735596,-9.857178,-0.49780273,0.29077148,0.7858887,-0.11462402,0.28674316,-0.21166992,131 
-9.918213,21.148682,-6.3934326,-0.51000977,0.28442383,0.7883301,-0.11462402,0.28710938,-0.21276855,132 
-6.6986084,24.06311,-2.6245117,-0.5258789,0.28027344,0.7932129,-0.1171875,0.28710938,-0.21276855,133 
-2.3498535,28.518677,2.1514893,-0.5358887,0.2800293,0.7932129,-0.1171875,0.28710938,-0.21276855,134 
5.126953,32.440186,6.30188,-0.532959,0.27978516,0.7871094,-0.1171875,0.28527832,-0.21276855,135 
14.770508,32.791138,10.986328,-0.51342773,0.27319336,0.77856445,-0.1171875,0.28527832,-0.21276855,136 
23.361206,31.860352,16.37268,-0.48583984,0.2578125,0.76831055,-0.1171875,0.28527832,-0.2109375,137 
29.891968,22.476196,17.791748,-0.4387207,0.23779297,0.7573242,-0.1171875,0.28637695,-0.2109375,138 
31.11267,10.83374,19.699097,-0.38745117,0.21240234,0.75341797,-0.1171875,0.28637695,-0.2109375,139 
26.58081,-0.5950928,22.827148,-0.37548828,0.17944336,0.7487793,-0.114990234,0.28894043,-0.20983887,140 
18.173218,-8.666992,24.810791,-0.39770508,0.1550293,0.7434082,-0.114990234,0.28894043,-0.20983887,141 
12.237549,-13.961792,24.841309,-0.44311523,0.14379883,0.7375488,-0.114990234,0.28894043,-0.20983887,142 
9.002686,-16.26587,23.31543,-0.48242188,0.14208984,0.7336426,-0.11315918,0.29223633,-0.2109375,143 
6.7596436,-16.174316,20.111084,-0.5097656,0.14477539,0.7351074,-0.11315918,0.29223633,-0.2109375,144 
0.91552734,-14.785767,16.616821,-0.52978516,0.14672852,0.7475586,-0.11315918,0.2947998,-0.20910645,145 
-6.958008,-13.580322,11.825562,-0.5437012,0.15136719,0.7753906,-0.11315918,0.2947998,-0.20910645,146 
-14.251709,-10.009766,9.20105,-0.560791,0.15795898,0.81030273,-0.11315918,0.2947998,-0.20910645,147 
-22.216797,-6.8969727,5.340576,-0.58569336,0.17089844,0.8442383,-0.110961914,0.29370117,-0.21166992,148 
-25.283813,-4.8828125,2.9754639,-0.6052246,0.19238281,0.8659668,-0.110961914,0.29370117,-0.21166992,149 
-25.83313,-1.2817383,1.7242432,-0.6208496,0.2121582,0.8725586,-0.111328125,0.29260254,-0.21203613,150 
-25.9552,6.088257,-0.061035156,-0.6291504,0.22680664,0.8666992,-0.111328125,0.29260254,-0.21203613,151 
-26.473999,15.74707,-2.456665,-0.6320801,0.23608398,0.85302734,-0.111328125,0.29260254,-0.21203613,152 
-27.84729,23.483276,-5.935669,-0.6257324,0.24316406,0.84106445,-0.11206055,0.2874756,-0.20837402,153 
-34.118652,29.251099,-9.185791,-0.60961914,0.2541504,0.8317871,-0.11206055,0.2874756,-0.20837402,154 
-35.736084,33.325195,-10.665894,-0.5871582,0.2685547,0.8210449,-0.11352539,0.28527832,-0.21166992,155 
-35.40039,34.91211,-10.192871,-0.62353516,0.27929688,0.80981445,-0.11352539,0.28527832,-0.21166992,156 
-35.232544,35.064697,-7.9193115,-0.54003906,0.28588867,0.7980957,-0.11352539,0.28527832,-0.21166992,157 
-34.210205,35.7666,-5.065918,-0.52368164,0.2902832,0.7895508,-0.115722656,0.2849121,-0.21057129,158 
-33.950806,34.92737,-3.036499,-0.50927734,0.29345703,0.78027344,-0.115722656,0.2849121,-0.21057129,159 
-33.706665,35.339355,-0.79345703,-0.49975586,0.29833984,0.77856445,-0.11645508,0.28198242,-0.21166992,160 
-32.333374,34.301758,1.7089844,-0.49145508,0.30908203,0.78271484,-0.11645508,0.28198242,-0.21166992,161 
-28.762817,32.592773,5.3100586,-0.48364258,0.3215332,0.78686523,-0.11645508,0.28198242,-0.21166992,162 
-22.918701,28.793335,9.857178,-0.48120117,0.33496094,0.79418945,-0.12011719,0.27978516,-0.21057129,163 
-16.311646,25.161743,15.045166,-0.48608398,0.34399414,0.7998047,-0.12011719,0.27978516,-0.21057129,164 
-8.987427,21.835327,19.851685,-0.49267578,0.34985352,0.79833984,-0.12011719,0.27978516,-0.21166992,165 
-1.0986328,17.25769,24.383545,-0.49780273,0.35107422,0.79125977,-0.12084961,0.27978516,-0.21166992,166 
6.7596436,13.061523,28.961182,-0.50219727,0.34399414,0.7854004,-0.12084961,0.27978516,-0.21166992,167 
11.383057,9.872437,32.836914,-0.5053711,0.3305664,0.7807617,-0.115722656,0.28015137,-0.20983887,168 
14.6484375,6.9122314,34.744263,-0.50683594,0.3137207,0.7741699,-0.115722656,0.28015137,-0.20983887,169 
15.014648,6.149292,34.25598,-0.50878906,0.29858398,0.7705078,-0.115722656,0.28015137,-0.20983887,170 
12.512207,6.8969727,32.836914,-0.5151367,0.2866211,0.77197266,-0.11682129,0.2845459,-0.20800781,171 
10.528564,11.016846,30.654907,-0.52319336,0.27685547,0.77563477,-0.11682129,0.2845459,-0.20800781,172 
8.392334,16.403198,27.404785,-0.5292969,0.27416992,0.7792969,-0.11682129,0.28601074,-0.21350098,173 
6.866455,20.645142,24.261475,-0.52563477,0.27490234,0.779541,-0.11682129,0.28601074,-0.21350098,174 
5.874634,23.086548,21.270752,-0.5148926,0.27490234,0.7766113,-0.11682129,0.28601074,-0.21350098,175 
3.8146973,24.795532,17.654419,-0.4975586,0.27319336,0.7770996,-0.11425781,0.28857422,-0.21020508,176 
2.6245117,24.902344,14.984131,-0.4802246,0.2692871,0.7800293,-0.11425781,0.28857422,-0.21020508,177 
0.6713867,21.04187,13.793945,-0.4650879,0.26464844,0.7858887,-0.11755371,0.28930664,-0.21020508,178 
-0.50354004,14.343262,13.1073,-0.45654297,0.26123047,0.7937012,-0.11755371,0.28930664,-0.21020508,179 
-0.16784668,1.7089844,15.533447,-0.45776367,0.26000977,0.80249023,-0.11755371,0.28930664,-0.21020508,180 
0.22888184,-2.2888184,16.220093,-0.46557617,0.26293945,0.8125,-0.119018555,0.2878418,-0.2076416,181 
5.5389404,-7.507324,18.829346,-0.4802246,0.26611328,0.8144531,-0.119018555,0.2878418,-0.2076416,182 
9.552002,-10.818481,20.568848,-0.49926758,0.265625,0.81640625,-0.11608887,0.2874756,-0.2076416,183 
12.573242,-11.428833,23.468018,-0.5263672,0.25976562,0.8195801,-0.11608887,0.2874756,-0.2076416,184 
13.778687,-8.926392,25.772095,-0.55688477,0.25073242,0.82128906,-0.11608887,0.2874756,-0.2076416,185 
13.244629,-4.1503906,27.999878,-0.5905762,0.24047852,0.8227539,-0.11608887,0.29003906,-0.20654297,186 
13.031006,2.6550293,29.830933,-0.6191406,0.23364258,0.82421875,-0.11608887,0.29003906,-0.20654297,187 
14.755249,7.583618,31.280518,-0.6303711,0.22949219,0.81884766,-0.11425781,0.29296875,-0.20947266,188 
15.670776,11.459351,31.539917,-0.6245117,0.22338867,0.8083496,-0.11425781,0.29296875,-0.20947266,189 
14.328003,14.73999,31.906128,-0.6113281,0.21289062,0.80029297,-0.11425781,0.29296875,-0.20947266,190 
11.871338,15.640259,31.555176,-0.59521484,0.19995117,0.79589844,-0.1105957,0.29223633,-0.21020508,191 
7.888794,15.335083,31.99768,-0.57788086,0.1850586,0.80029297,-0.1105957,0.29223633,-0.21020508,192 
1.4648438,12.680054,34.454346,-0.5595703,0.171875,0.8105469,-0.11022949,0.29333496,-0.2076416,193 
-3.463745,10.620117,35.339355,-0.54418945,0.16430664,0.8222656,-0.11022949,0.29333496,-0.2076416,194 
-6.2561035,10.83374,33.599854,-0.52685547,0.16308594,0.8276367,-0.11022949,0.29333496,-0.2076416,195 
-9.124756,13.320923,30.029297,-0.5070801,0.16210938,0.8251953,-0.107299805,0.29699707,-0.21166992,196 
-10.5896,10.955811,26.412964,-0.48608398,0.16064453,0.81396484,-0.107299805,0.29699707,-0.21166992,197 
-12.527466,7.598877,23.712158,-0.4584961,0.15991211,0.80200195,-0.107299805,0.29699707,-0.21203613,198 
-12.496948,-10.772705,18.936157,-0.40527344,0.17333984,0.76953125,-0.10803223,0.29736328,-0.21203613,200 
-16.113281,-23.498535,17.074585,-0.39672852,0.18261719,0.7648926,-0.10949707,0.2980957,-0.20947266,201 
-19.821167,-30.792236,15.838623,-0.42114258,0.18945312,0.77612305,-0.10949707,0.2980957,-0.20947266,202 
-24.917603,-29.449463,15.686035,-0.4777832,0.19580078,0.7949219,-0.10949707,0.2980957,-0.20947266,203 
-28.701782,-20.9198,14.083862,-0.5046387,0.20214844,0.8171387,-0.103271484,0.2915039,-0.2109375,204 
-28.701782,-5.844116,11.871338,-0.6394043,0.21508789,0.8405762,-0.103271484,0.2915039,-0.2109375,205 
-26.260376,13.824463,9.399414,-0.6779785,0.23144531,0.85302734,-0.103637695,0.2944336,-0.20800781,206 
-24.18518,30.761719,5.6610107,-0.6689453,0.24487305,0.8547363,-0.103637695,0.2944336,-0.20800781,207 
-26.275635,46.051025,2.4261475,-0.6257324,0.25195312,0.8432617,-0.103637695,0.2944336,-0.20800781,208 
-27.435303,52.505493,-1.663208,-0.56469727,0.25634766,0.82714844,-0.10437012,0.29553223,-0.20837402,209 
-35.04944,53.03955,-4.3640137,-0.51342773,0.26171875,0.8125,-0.10437012,0.29553223,-0.20837402,210 
-36.65161,44.49463,-6.0577393,-0.47436523,0.27563477,0.8022461,-0.107666016,0.29040527,-0.21057129,211 
-36.132812,36.209106,-7.7209473,-0.44750977,0.29614258,0.79833984,-0.107666016,0.29040527,-0.21057129,212 
-31.219482,28.366089,-9.887695,-0.4350586,0.32055664,0.79589844,-0.107666016,0.29040527,-0.21057129,213 
-21.057129,22.460938,-10.787964,-0.4272461,0.34277344,0.7976074,-0.10876465,0.288208,-0.2076416,214 
-8.377075,20.401001,-11.21521,-0.41870117,0.3515625,0.8010254,-0.10876465,0.288208,-0.2076416,215 
0.16784668,17.730713,-11.138916,-0.4140625,0.34423828,0.8027344,-0.10876465,0.28601074,-0.2076416,216 
4.0130615,12.435913,-8.865356,-0.41503906,0.32299805,0.80688477,-0.10876465,0.28601074,-0.2076416,217 
4.7454834,5.935669,-8.605957,-0.41796875,0.30395508,0.81347656,-0.10876465,0.28601074,-0.2076416,218 
7.019043,-2.746582,-8.239746,-0.42163086,0.2890625,0.8166504,-0.11315918,0.28637695,-0.21057129,219 
8.81958,-7.4005127,-9.063721,-0.43310547,0.2763672,0.8156738,-0.11315918,0.28637695,-0.21057129,220 
9.979248,-14.6484375,-9.796143,-0.44873047,0.27124023,0.8078613,-0.11352539,0.2845459,-0.2109375,221 
17.105103,-18.188477,-8.712769,-0.46142578,0.2631836,0.8076172,-0.11352539,0.2845459,-0.2109375,222 
15.258789,-22.491455,-7.4768066,-0.4736328,0.25195312,0.81152344,-0.11352539,0.2845459,-0.2109375,223 
15.548706,-23.040771,-6.378174,-0.49291992,0.24169922,0.8171387,-0.111328125,0.28637695,-0.20690918,224 
12.496948,-21.209717,-5.3100586,-0.5222168,0.22949219,0.8190918,-0.111328125,0.28637695,-0.20690918,225 
4.8980713,-18.692017,-3.0822754,-0.55810547,0.22021484,0.8210449,-0.111328125,0.28967285,-0.20727539,226 
1.2054443,-13.763428,-1.4801025,-0.5822754,0.2211914,0.8215332,-0.11462402,0.28967285,-0.20727539,227 
-0.8239746,-10.848999,-1.3122559,-0.59472656,0.22998047,0.8222656,-0.11462402,0.28967285,-0.20727539,228 
-2.090454,-1.2359619,0.5340576,-0.6003418,0.23852539,0.82055664,-0.107299805,0.28674316,-0.20581055,229 
-2.0751953,4.1656494,1.8157959,-0.6022949,0.2475586,0.8095703,-0.107299805,0.28674316,-0.20581055,230 
-2.029419,6.286621,2.39563,-0.59887695,0.2541504,0.7949219,-0.107299805,0.28674316,-0.20581055,231 
0.1373291,8.529663,1.6479492,-0.5852051,0.26293945,0.77905273,-0.11352539,0.28564453,-0.20983887,232 
0.32043457,12.22229,0.36621094,-0.5656738,0.26904297,0.7663574,-0.11352539,0.28564453,-0.20983887,233 
-1.7089844,13.427734,0.9765625,-0.5437012,0.2705078,0.7624512,-0.11206055,0.28637695,-0.20837402,234 
-6.2408447,14.709473,0.36621094,-0.52124023,0.2722168,0.76831055,-0.11206055,0.28637695,-0.20837402,235 
-8.895874,16.220093,-0.869751,-0.5041504,0.27978516,0.7800293,-0.11206055,0.28637695,-0.20837402,236 
-9.719849,18.356323,-2.7770996,-0.48999023,0.29248047,0.7915039,-0.111694336,0.28710938,-0.20361328,237 
-7.2631836,21.575928,-4.119873,-0.47607422,0.3046875,0.8005371,-0.111694336,0.28710938,-0.20361328,238 
-3.1433105,24.06311,-6.362915,-0.46142578,0.3161621,0.80371094,-0.11425781,0.28564453,-0.20654297,239 
2.3498535,23.605347,-7.6446533,-0.4428711,0.32177734,0.80615234,-0.11425781,0.28564453,-0.20654297,240 
6.225586,20.248413,-10.055542,-0.42626953,0.32299805,0.80200195,-0.11425781,0.28564453,-0.20654297,241 
8.773804,14.190674,-13.015747,-0.4128418,0.32177734,0.7939453,-0.115356445,0.288208,-0.20471191,242 
11.199951,7.5531006,-15.975952,-0.40063477,0.32226562,0.7885742,-0.115356445,0.288208,-0.20471191,243 
13.641357,1.373291,-15.716553,-0.39257812,0.32641602,0.78686523,-0.115356445,0.2874756,-0.21313477,244 
15.670776,-5.2337646,-23.406982,-0.38989258,0.3322754,0.7873535,-0.115356445,0.2874756,-0.21313477,245 
16.662598,-10.131836,-27.389526,-0.3959961,0.33813477,0.7890625,-0.115356445,0.2874756,-0.21313477,246 
15.731812,-14.343262,-33.477783,-0.40966797,0.34448242,0.7949219,-0.1138916,0.28564453,-0.20983887,247 
13.519287,-18.737793,-38.482666,-0.43188477,0.3486328,0.8071289,-0.1138916,0.28564453,-0.20983887,248 
12.557983,-22.04895,-41.275024,-0.4555664,0.3527832,0.8171387,-0.11425781,0.28674316,-0.21240234,249 
13.122559,-26.992798,-44.021606,-0.47875977,0.35375977,0.82836914,-0.11425781,0.28674316,-0.21240234,250 
4.257202,-34.5459,-51.589966,-0.5046387,0.35302734,0.8391113,-0.11425781,0.28674316,-0.21240234,251 
-0.8087158,-29.464722,-53.024292,-0.54589844,0.3474121,0.861084,-0.114990234,0.2849121,-0.20837402,252 
5.493164,-22.842407,-49.453735,-0.5671387,0.3461914,0.85839844,-0.114990234,0.2849121,-0.20837402,253 
12.1154785,-23.880005,-47.546387,-0.5551758,0.34057617,0.84594727,-0.1171875,0.28601074,-0.20874023,254 
18.52417,-17.669678,-43.21289,-0.5305176,0.31689453,0.8383789,-0.1171875,0.28601074,-0.20874023,255 
11.993408,-18.569946,-39.123535,-0.51904297,0.28271484,0.81518555,-0.1171875,0.28601074,-0.20874023,0 
1.6937256,-28.10669,-28.48816,-0.517334,0.24682617,0.7910156,-0.11279297,0.2808838,-0.20983887,1 
-10.009766,-38.650513,-21.04187,-0.5239258,0.23217773,0.78271484,-0.11279297,0.2808838,-0.20983887,2 
-13.99231,-39.16931,-12.207031,-0.53027344,0.24121094,0.7819824,-0.11279297,0.27978516,-0.20178223,3 
-3.9367676,-42.297363,-7.1411133,-0.5205078,0.26416016,0.7675781,-0.114990234,0.27978516,-0.20178223,4 
6.072998,-44.6167,-4.2419434,-0.50927734,0.27905273,0.75390625,-0.114990234,0.27978516,-0.20178223,5 
13.427734,-40.145874,-1.0070801,-0.5148926,0.27734375,0.7507324,-0.11352539,0.27978516,-0.2010498,6 
15.975952,-38.116455,8.712769,-0.53686523,0.26245117,0.74609375,-0.11352539,0.27978516,-0.2010498,7 
16.464233,-37.29248,16.63208,-0.5612793,0.24829102,0.7446289,-0.11352539,0.27978516,-0.2010498,8 
14.23645,-33.26416,20.004272,-0.5830078,0.23925781,0.74658203,-0.10986328,0.27905273,-0.20324707,9 
12.084961,-26.489258,19.622803,-0.6010742,0.23388672,0.75219727,-0.10986328,0.27905273,-0.20324707,10 
15.411377,-17.807007,24.307251,-0.6152344,0.23217773,0.7561035,-0.110961914,0.28198242,-0.20361328,11 
17.974854,-5.6915283,28.97644,-0.6213379,0.22558594,0.7531738,-0.110961914,0.28198242,-0.20361328,12 
27.816772,3.540039,33.78296,-0.6064453,0.21972656,0.7368164,-0.110961914,0.28198242,-0.20361328,13 
29.434204,16.525269,34.347534,-0.5859375,0.20800781,0.7194824,-0.10839844,0.28601074,-0.20214844,14 
26.184082,20.217896,37.109375,-0.5710449,0.19360352,0.7038574,-0.10839844,0.28601074,-0.20214844,15 
19.27185,21.575928,39.67285,-0.5605469,0.1940918,0.71362305,-0.106933594,0.28930664,-0.20324707,16 
15.853882,17.913818,39.230347,-0.5463867,0.22021484,0.736084,-0.106933594,0.28930664,-0.20324707,17 
20.15686,13.717651,37.384033,-0.52905273,0.25805664,0.76904297,-0.106933594,0.28930664,-0.20324707,18 
27.389526,8.178711,36.392212,-0.5205078,0.28833008,0.80566406,-0.10876465,0.2911377,-0.20397949,19 
33.554077,-0.62561035,36.05652,-0.5209961,0.30566406,0.82958984,-0.10876465,0.2911377,-0.20397949,20 
38.650513,-7.0495605,35.690308,-0.5275879,0.30639648,0.84375,-0.10620117,0.29370117,-0.20471191,21 
38.2843,-12.634277,33.63037,-0.5361328,0.29833984,0.84594727,-0.10620117,0.29370117,-0.20471191,22 
36.849976,-13.473511,32.440186,-0.5461426,0.28198242,0.8391113,-0.10620117,0.29370117,-0.20471191,23 
32.11975,-13.137817,34.942627,-0.56152344,0.26416016,0.8244629,-0.10144043,0.29992676,-0.20874023,24 
25.57373,-10.83374,29.006958,-0.5769043,0.24658203,0.8063965,-0.10144043,0.29992676,-0.20874023,25 
20.431519,-6.6986084,26.59607,-0.58984375,0.23657227,0.79248047,-0.10107422,0.2980957,-0.20397949,26 
14.862061,-1.9836426,23.605347,-0.5983887,0.23242188,0.7824707,-0.10107422,0.2980957,-0.20397949,27 
10.360718,0.35095215,21.057129,-0.6008301,0.23242188,0.7758789,-0.10107422,0.2980957,-0.20397949,28 
11.428833,8.026123,18.234253,-0.5961914,0.2368164,0.7751465,-0.095947266,0.30395508,-0.20690918,29 
6.378174,11.444092,14.266968,-0.5847168,0.24414062,0.7753906,-0.095947266,0.30395508,-0.20690918,30 
6.0577393,13.870239,10.360718,-0.5690918,0.25195312,0.77685547,-0.099975586,0.30029297,-0.21166992,31 
6.6833496,14.465332,7.5683594,-0.5493164,0.25683594,0.77563477,-0.099975586,0.30029297,-0.21166992,32 
8.651733,13.73291,4.2419434,-0.53222656,0.25952148,0.77490234,-0.099975586,0.30029297,-0.21166992,33 
9.277344,11.444092,1.6784668,-0.51782227,0.26000977,0.77563477,-0.099609375,0.30249023,-0.20800781,34 
10.83374,8.804321,-0.2593994,-0.50439453,0.25805664,0.7775879,-0.099609375,0.30249023,-0.20800781,35 
12.893677,5.5389404,-2.5634766,-0.49658203,0.25439453,0.78100586,-0.099609375,0.30249023,-0.21057129,36 
15.106201,1.373291,-2.7618408,-0.49316406,0.24951172,0.7854004,-0.09887695,0.30029297,-0.21057129,37 
17.211914,-2.090454,-3.5858154,-0.4934082,0.24438477,0.7907715,-0.09887695,0.30029297,-0.21057129,38 
20.141602,-6.0272217,-3.3569336,-0.49536133,0.23950195,0.7988281,-0.099975586,0.30578613,-0.21240234,39 
23.468018,-11.703491,-3.0059814,-0.49902344,0.23413086,0.80444336,-0.099975586,0.30578613,-0.21240234,40 
25.894165,-15.975952,-2.1972656,-0.5048828,0.22753906,0.8093262,-0.099975586,0.30578613,-0.21240234,41 
27.740479,-21.209717,-1.3275146,-0.51538086,0.22021484,0.8095703,-0.09851074,0.30395508,-0.20910645,42 
28.274536,-25.939941,-0.38146973,-0.5319824,0.21020508,0.8071289,-0.09851074,0.30395508,-0.20910645,43 
28.961182,-26.809692,1.0986328,-0.5510254,0.2006836,0.8034668,-0.0970459,0.30395508,-0.20800781,44 
28.85437,-26.70288,2.9754639,-0.5727539,0.1899414,0.7963867,-0.0970459,0.30395508,-0.20800781,45 
28.030396,-24.719238,5.203247,-0.59814453,0.17675781,0.7873535,-0.0970459,0.30395508,-0.20800781,46 
26.473999,-23.147583,7.7819824,-0.6184082,0.1628418,0.7780762,-0.09631348,0.30688477,-0.20690918,47 
20.614624,-20.67566,10.070801,-0.6347656,0.14624023,0.77368164,-0.09631348,0.30688477,-0.20690918,48 
8.880615,-19.89746,7.9345703,-0.6538086,0.13134766,0.77246094,-0.09338379,0.30981445,-0.21240234,49 
-11.871338,-27.374268,4.9591064,-0.67529297,0.1159668,0.7907715,-0.09338379,0.30981445,-0.21240234,50 
-20.568848,-20.935059,15.792847,-0.7121582,0.100097656,0.84277344,-0.09338379,0.30981445,-0.21240234,51 
-34.225464,-10.986328,11.947632,-0.7531738,0.10571289,0.87939453,-0.09118652,0.30871582,-0.20910645,52 
-44.3573,-0.6866455,5.1574707,-0.7702637,0.110839844,0.89282227,-0.09118652,0.30871582,-0.20910645,53 
-46.463013,23.31543,0.6561279,-0.7753906,0.099853516,0.8964844,-0.091918945,0.3046875,-0.20251465,54 
-61.75232,44.555664,-7.2021484,-0.7783203,0.07470703,0.88378906,-0.091918945,0.3046875,-0.20251465,55 
-91.69006,56.381226,-3.2348633,-0.80078125,0.029785156,0.87890625,-0.091918945,0.3046875,-0.20251465,56 
-110.29053,72.69287,10.482788,-0.81811523,0.011962891,0.86328125,-0.09265137,0.3010254,-0.20141602,57 
-107.40662,96.31348,20.248413,-0.77734375,0.018310547,0.8234863,-0.09265137,0.3010254,-0.20141602,58 
-105.59082,95.10803,10.1623535,-0.70214844,0.041748047,0.7438965,-0.0970459,0.2980957,-0.20727539,59 
-98.70911,95.947266,8.239746,-0.6225586,0.068115234,0.7155762,-0.0970459,0.2980957,-0.20727539,60 
-100.17395,93.84155,1.2969971,-0.5654297,0.11425781,0.7062988,-0.0970459,0.2980957,-0.20727539,61 
-85.235596,81.832886,-1.7852783,-0.51049805,0.17358398,0.7043457,-0.103637695,0.2911377,-0.20654297,62 
-70.78552,69.610596,-6.8359375,-0.44677734,0.2253418,0.71875,-0.103637695,0.2911377,-0.20654297,63 
-61.61499,54.56543,-7.6904297,-0.4033203,0.25952148,0.72143555,-0.10656738,0.28601074,-0.20214844,64 
-51.17798,41.137695,-8.81958,-0.38745117,0.28515625,0.7233887,-0.10656738,0.28601074,-0.20214844,65 
-48.599243,35.17151,-12.390137,-0.40722656,0.29711914,0.73046875,-0.10656738,0.28601074,-0.20214844,66 
-43.426514,32.76062,-10.848999,-0.43725586,0.30737305,0.73828125,-0.10876465,0.27868652,-0.20141602,67 
-38.406372,35.491943,-10.726929,-0.45483398,0.32373047,0.75390625,-0.10876465,0.27868652,-0.20141602,68 
-34.75952,37.0636,-8.255005,-0.46557617,0.33764648,0.76586914,-0.10876465,0.27868652,-0.20251465,69 
-31.12793,29.60205,-10.284424,-0.47192383,0.35864258,0.7807617,-0.11206055,0.27978516,-0.20251465,70 
-25.222778,27.359009,-11.84082,-0.47973633,0.3708496,0.7902832,-0.11206055,0.27978516,-0.20251465,71 
-16.311646,21.835327,-10.131836,-0.4819336,0.37158203,0.7944336,-0.11022949,0.2816162,-0.20471191,72 
-11.871338,15.823364,-12.008667,-0.4741211,0.3635254,0.7976074,-0.11022949,0.2816162,-0.20471191,73 
-8.605957,10.070801,-9.475708,-0.45458984,0.33911133,0.78149414,-0.11022949,0.2816162,-0.20471191,74 
-15.884399,2.7008057,-10.650635,-0.43969727,0.32373047,0.76538086,-0.11645508,0.27868652,-0.2010498,75 
-20.477295,4.8065186,-12.802124,-0.4404297,0.32470703,0.7614746,-0.11645508,0.27868652,-0.2010498,76 
-23.620605,5.264282,-16.662598,-0.4482422,0.3371582,0.7697754,-0.11645508,0.27612305,-0.19921875,77 
-18.753052,5.584717,-18.325806,-0.44384766,0.3515625,0.77075195,-0.11645508,0.27612305,-0.19921875,78 
-15.50293,6.8969727,-17.654419,-0.43188477,0.35595703,0.7687988,-0.11645508,0.27612305,-0.19921875,79 
-12.176514,3.6315918,-16.63208,-0.42285156,0.35913086,0.7644043,-0.11645508,0.27722168,-0.19812012,80 
-11.71875,-0.64086914,-22.033691,-0.42626953,0.36914062,0.7741699,-0.11645508,0.27722168,-0.19812012,81 
-6.011963,-8.361816,-24.215698,-0.42773438,0.38061523,0.7854004,-0.1171875,0.27355957,-0.19519043,82 
-1.3122559,-17.181396,-22.659302,-0.43017578,0.38183594,0.7932129,-0.1171875,0.27355957,-0.19519043,83 
0.24414062,-23.727417,-21.606445,-0.45043945,0.3803711,0.8000488,-0.1171875,0.27355957,-0.19519043,84 
1.5106201,-25.344849,-18.356323,-0.4855957,0.3762207,0.80200195,-0.115356445,0.27355957,-0.2010498,85 
1.9226074,-23.971558,-16.448975,-0.5246582,0.36767578,0.79296875,-0.115356445,0.27355957,-0.2010498,86 
1.0070801,-20.79773,-14.99939,-0.5546875,0.35302734,0.78125,-0.11242676,0.26916504,-0.19555664,87 
-3.4179688,-15.50293,-13.137817,-0.58032227,0.33374023,0.76904297,-0.11242676,0.26916504,-0.19555664,88 
-7.095337,-6.1950684,-11.993408,-0.59765625,0.3227539,0.76049805,-0.11242676,0.26916504,-0.19555664,89 
-10.7421875,1.7547607,-11.795044,-0.59472656,0.31469727,0.75146484,-0.11315918,0.27026367,-0.19665527,90 
-13.320923,6.713867,-12.008667,-0.5800781,0.30810547,0.74194336,-0.11315918,0.27026367,-0.19665527,91 
-16.26587,12.710571,-13.168335,-0.56884766,0.3010254,0.7380371,-0.1138916,0.2680664,-0.19372559,92 
-24.917603,20.858765,-16.76941,-0.5344238,0.30786133,0.7504883,-0.1138916,0.2680664,-0.19372559,94 
-24.368286,19.65332,-18.966675,-0.51538086,0.32592773,0.76293945,-0.1171875,0.26843262,-0.19958496,95 
-23.712158,9.658813,-19.27185,-0.48168945,0.34716797,0.7788086,-0.1171875,0.26330566,-0.19482422,97 
-23.57483,6.5612793,-17.669678,-0.47851562,0.34643555,0.78515625,-0.11755371,0.26330566,-0.19482422,98 
-28.10669,12.954712,-16.433716,-0.4934082,0.3359375,0.7817383,-0.11828613,0.26293945,-0.19665527,100 
-34.835815,20.507812,-18.310547,-0.49804688,0.32617188,0.78881836,-0.11828613,0.26293945,-0.19665527,101 
-43.8385,30.776978,-23.223877,-0.4650879,0.34887695,0.80615234,-0.12121582,0.26513672,-0.19445801,103 
-42.70935,25.83313,-22.18628,-0.43774414,0.36938477,0.8129883,-0.12121582,0.26513672,-0.19445801,104 
-38.406372,15.060425,-22.003174,-0.41064453,0.38916016,0.81347656,-0.123413086,0.25891113,-0.18969727,105 
-36.514282,7.2631836,-21.377563,-0.3894043,0.40161133,0.80981445,-0.123413086,0.25891113,-0.18969727,106 
-35.995483,-7.1868896,-19.638062,-0.38427734,0.40356445,0.8066406,-0.123413086,0.25891113,-0.18969727,107 
-41.107178,-9.979248,-16.983032,-0.4111328,0.38964844,0.8071289,-0.12231445,0.25598145,-0.18566895,108 
-45.166016,-5.9814453,-17.181396,-0.44970703,0.3774414,0.80371094,-0.12231445,0.25598145,-0.18566895,109 
-49.468994,2.1972656,-18.920898,-0.48999023,0.37158203,0.79125977,-0.12451172,0.2512207,-0.1842041,110 
-48.52295,9.887695,-19.699097,-0.5288086,0.3737793,0.7734375,-0.12451172,0.2512207,-0.1842041,111 
-46.37146,17.791748,-20.29419,-0.5529785,0.38183594,0.75219727,-0.12451172,0.2512207,-0.1842041,112 
-44.570923,25.878906,-19.378662,-0.5715332,0.3947754,0.732666,-0.12597656,0.25341797,-0.18566895,113 
-42.907715,34.820557,-18.859863,-0.58813477,0.4091797,0.71435547,-0.12597656,0.25341797,-0.18566895,114 
-42.58728,54.534912,-18.295288,-0.6022949,0.41577148,0.69799805,-0.12927246,0.24389648,-0.18237305,115 
-40.83252,70.5719,-18.28003,-0.59814453,0.42456055,0.6838379,-0.12927246,0.24389648,-0.18237305,116 
-41.046143,76.76697,-18.844604,-0.55688477,0.42773438,0.6791992,-0.12927246,0.24389648,-0.18237305,117 
-42.510986,79.833984,-16.00647,-0.51831055,0.42456055,0.68237305,-0.13366699,0.2446289,-0.17980957,118 
-29.037476,44.036865,-19.256592,-0.34033203,0.5024414,0.7800293,-0.14428711,0.23730469,-0.17944336,124 
-29.830933,37.765503,-15.777588,-0.3659668,0.5102539,0.77075195,-0.14245605,0.23913574,-0.17980957,127 
-25.375366,23.727417,-16.555786,-0.40795898,0.5065918,0.7558594,-0.15270996,0.23144531,-0.17944336,133 
-29.418945,39.70337,-12.802124,-0.44604492,0.51220703,0.73583984,-0.15600586,0.23144531,-0.18164062,136 
-24.490356,40.19165,-8.880615,-0.3942871,0.5214844,0.74194336,-0.15856934,0.22705078,-0.1776123,139 
-27.557373,41.397095,-8.407593,-0.37841797,0.5148926,0.748291,-0.15856934,0.22705078,-0.1776123,140 
-30.441284,45.303345,-6.942749,-0.38061523,0.51000977,0.7458496,-0.15856934,0.22485352,-0.18237305,141 
-29.586792,48.76709,-7.2784424,-0.39233398,0.5119629,0.7438965,-0.15856934,0.22485352,-0.18237305,142 
-28.625488,53.848267,-6.8511963,-0.40161133,0.515625,0.7438965,-0.16149902,0.22558594,-0.1772461,143 
