GX, GY, GZ, AX, AY, AZ, MX, MY, MZ, TS, tags
1.1291504,3.540039,-1.7852783,0.23461914,0.53759766,0.78930664,-0.3651123,-0.13623047,0.17504883,84 
0.74768066,3.2653809,-1.2359619,0.23486328,0.5373535,0.78808594,-0.36584473,-0.1307373,0.17578125,85 
1.3275146,3.0517578,-1.1291504,0.23510742,0.53637695,0.78808594,-0.36584473,-0.1307373,0.17578125,86 
0.91552734,3.0822754,-0.9460449,0.23486328,0.53637695,0.78808594,-0.36914062,-0.13476562,0.1772461,87 
1.159668,2.670288,-0.9765625,0.23486328,0.53686523,0.78930664,-0.36914062,-0.13476562,0.1772461,88 
0.5645752,2.670288,-1.1901855,0.234375,0.5366211,0.7895508,-0.36914062,-0.13476562,0.1772461,89 
0.5645752,2.8839111,-1.2207031,0.23388672,0.5366211,0.7897949,-0.36987305,-0.13293457,0.1739502,90 
-0.35095215,3.479004,-1.3122559,0.23339844,0.5358887,0.7897949,-0.36987305,-0.13293457,0.1739502,91 
-0.8239746,3.692627,-1.3885498,0.23217773,0.53637695,0.7915039,-0.36950684,-0.13513184,0.17687988,92 
-0.5645752,4.501343,-1.0986328,0.23168945,0.5371094,0.79296875,-0.36950684,-0.13513184,0.17687988,93 
-1.083374,4.3945312,-1.5716553,0.22998047,0.53759766,0.7939453,-0.36950684,-0.13513184,0.17687988,94 
-0.5187988,4.196167,-1.6326904,0.22875977,0.53759766,0.7949219,-0.36291504,-0.13623047,0.1739502,95 
-0.50354004,5.340576,-1.6479492,0.2277832,0.5378418,0.79467773,-0.36291504,-0.13623047,0.1739502,96 
0.38146973,5.203247,-1.4648438,0.2277832,0.5371094,0.7944336,-0.3684082,-0.13476562,0.1776123,97 
0.4272461,5.508423,-1.8920898,0.22875977,0.53564453,0.79345703,-0.3684082,-0.13476562,0.1776123,98 
0.44250488,5.41687,-2.1362305,0.22973633,0.5341797,0.7919922,-0.3684082,-0.13476562,0.1776123,99 
0.61035156,4.852295,-2.029419,0.23144531,0.5336914,0.79125977,-0.36547852,-0.13476562,0.17175293,100 
0.39672852,4.5776367,-1.9073486,0.23266602,0.53393555,0.79052734,-0.36547852,-0.13476562,0.17175293,101 
0.24414062,4.699707,-1.6784668,0.23339844,0.53466797,0.7902832,-0.3720703,-0.1373291,0.17248535,102 
0.4272461,4.2266846,-1.6784668,0.23413086,0.53564453,0.7907715,-0.3720703,-0.1373291,0.17248535,103 
0.39672852,3.829956,-1.6784668,0.23461914,0.53686523,0.7907715,-0.3720703,-0.1373291,0.17175293,104 
0.62561035,4.0283203,-1.2664795,0.23413086,0.53759766,0.7907715,-0.36767578,-0.13549805,0.17175293,105 
0.7171631,3.8604736,-0.91552734,0.23388672,0.53808594,0.7910156,-0.36767578,-0.13549805,0.17175293,106 
0.5187988,3.463745,-0.8392334,0.23364258,0.53759766,0.7902832,-0.3684082,-0.13439941,0.17541504,107 
1.0223389,3.2806396,-1.159668,0.23388672,0.53759766,0.79052734,-0.3684082,-0.13439941,0.17541504,108 
0.88500977,3.6468506,-1.1138916,0.23413086,0.5366211,0.79003906,-0.3684082,-0.13439941,0.17541504,109 
0.8392334,3.3721924,-1.2817383,0.23388672,0.53637695,0.7897949,-0.36730957,-0.13256836,0.17175293,110 
0.7324219,3.6621094,-1.1749268,0.23364258,0.53564453,0.78930664,-0.36730957,-0.13256836,0.17175293,111 
1.1749268,2.9296875,-1.3122559,0.23339844,0.53515625,0.7895508,-0.36730957,-0.13549805,0.18127441,112 
1.0681152,3.463745,-1.2512207,0.2331543,0.5349121,0.7902832,-0.36730957,-0.13549805,0.18127441,113 
1.0223389,3.5858154,-1.449585,0.2331543,0.5354004,0.79052734,-0.36730957,-0.13549805,0.18127441,114 
0.5645752,3.7231445,-1.6937256,0.23364258,0.53564453,0.7902832,-0.36694336,-0.13549805,0.17504883,115 
0.7019043,3.692627,-1.083374,0.23388672,0.5361328,0.7902832,-0.36694336,-0.13549805,0.17504883,116 
0.1373291,3.7384033,-1.739502,0.23413086,0.5371094,0.79052734,-0.3713379,-0.13696289,0.17541504,117 
-0.12207031,3.6468506,-1.1138916,0.234375,0.5378418,0.7907715,-0.3713379,-0.13696289,0.17541504,118 
-0.30517578,3.6010742,-1.3275146,0.23510742,0.5385742,0.7902832,-0.3713379,-0.13696289,0.17687988,119 
-0.015258789,3.540039,-1.0223389,0.23583984,0.5395508,0.78930664,-0.36987305,-0.13623047,0.17687988,120 
-0.091552734,3.7231445,-0.7171631,0.23535156,0.5397949,0.7897949,-0.36987305,-0.13623047,0.17687988,121 
0.39672852,3.0822754,-0.64086914,0.23486328,0.5397949,0.79003906,-0.3717041,-0.13659668,0.17907715,122 
0.2593994,3.5705566,-0.4272461,0.23413086,0.5390625,0.7895508,-0.3717041,-0.13659668,0.17907715,123 
0.50354004,2.7313232,-0.8544922,0.23339844,0.5395508,0.78930664,-0.3717041,-0.13659668,0.17907715,124 
0.5340576,2.8076172,-0.7171631,0.23291016,0.5390625,0.7897949,-0.37023926,-0.13586426,0.18054199,125 
0.35095215,2.7618408,-0.38146973,0.23291016,0.53808594,0.79003906,-0.37023926,-0.13586426,0.18054199,126 
0.33569336,2.5024414,-0.39672852,0.23291016,0.5373535,0.7895508,-0.3687744,-0.13769531,0.17687988,127 
0.5187988,2.4261475,-0.61035156,0.23266602,0.5378418,0.79003906,-0.3687744,-0.13769531,0.17687988,128 
0.076293945,2.090454,-0.6866455,0.23217773,0.53759766,0.7915039,-0.3687744,-0.13769531,0.17687988,129 
0.2746582,2.105713,-0.7171631,0.2319336,0.53808594,0.79174805,-0.36730957,-0.13549805,0.1772461,130 
0.5950928,1.9683838,-0.5340576,0.23168945,0.5385742,0.7919922,-0.36730957,-0.13549805,0.1772461,131 
0.64086914,1.6326904,-0.6713867,0.23120117,0.5385742,0.7922363,-0.368042,-0.1373291,0.17285156,132 
0.2593994,1.6784668,-0.6561279,0.22998047,0.53881836,0.79248047,-0.368042,-0.1373291,0.17285156,133 
0.045776367,1.4343262,-0.5493164,0.22949219,0.5385742,0.79248047,-0.368042,-0.1373291,0.17797852,134 
-0.015258789,2.2888184,-1.083374,0.22875977,0.53881836,0.79248047,-0.36767578,-0.1373291,0.17797852,135 
0.091552734,2.5024414,-0.9460449,0.22875977,0.5390625,0.7915039,-0.36767578,-0.1373291,0.17797852,136 
0.19836426,2.5024414,-0.8392334,0.22851562,0.5397949,0.7915039,-0.3687744,-0.13586426,0.18347168,137 
0.47302246,1.9683838,-0.77819824,0.22851562,0.5402832,0.79125977,-0.3687744,-0.13586426,0.18347168,138 
0.5187988,3.3416748,-0.74768066,0.22851562,0.54052734,0.7915039,-0.3687744,-0.13586426,0.18237305,139 
0.6561279,2.89917,-0.7019043,0.22875977,0.54052734,0.79125977,-0.36730957,-0.13476562,0.18237305,140 
0.5950928,2.6397705,-0.93078613,0.2290039,0.54052734,0.79174805,-0.36730957,-0.13476562,0.18237305,141 
0.50354004,2.8076172,-0.6866455,0.22851562,0.5395508,0.79174805,-0.36730957,-0.13806152,0.18310547,142 
0.5187988,2.89917,-1.1901855,0.22827148,0.53930664,0.7915039,-0.36730957,-0.13806152,0.18310547,143 
0.289917,2.9449463,-0.869751,0.22802734,0.53881836,0.7919922,-0.36730957,-0.13806152,0.17980957,144 
0.5645752,3.0670166,-0.88500977,0.22827148,0.5385742,0.79248047,-0.368042,-0.13659668,0.17980957,145 
0.50354004,2.670288,-0.90026855,0.22827148,0.5390625,0.79248047,-0.368042,-0.13659668,0.17980957,146 
0.7324219,3.0975342,-0.74768066,0.2277832,0.5395508,0.7922363,-0.36950684,-0.14025879,0.18347168,147 
0.5645752,3.0670166,-0.9460449,0.22827148,0.5402832,0.79174805,-0.36950684,-0.14025879,0.18347168,148 
0.076293945,2.8686523,-0.93078613,0.22802734,0.54125977,0.7902832,-0.36950684,-0.13696289,0.17651367,149 
0.5493164,3.2348633,-0.93078613,0.2265625,0.5432129,0.78930664,-0.36584473,-0.13696289,0.17651367,150 
1.7547607,4.3792725,-1.3275146,0.2241211,0.54541016,0.79052734,-0.36584473,-0.13696289,0.17651367,151 
2.1820068,5.1574707,-2.0599365,0.22338867,0.5456543,0.7932129,-0.3684082,-0.13330078,0.18164062,152 
2.8533936,6.286621,-2.4414062,0.22265625,0.54589844,0.795166,-0.3684082,-0.13330078,0.18164062,153 
3.6468506,6.8511963,-2.7313232,0.22241211,0.5456543,0.7961426,-0.3684082,-0.13330078,0.1809082,154 
4.2266846,7.0343018,-2.6550293,0.22290039,0.54345703,0.795166,-0.36987305,-0.13366699,0.1809082,155 
3.4332275,6.866455,-3.1433105,0.22436523,0.5410156,0.7932129,-0.36987305,-0.13366699,0.1809082,156 
2.7923584,6.958008,-2.5482178,0.22729492,0.5383301,0.7907715,-0.37097168,-0.13623047,0.18493652,157 
1.8615723,6.92749,-2.7923584,0.22998047,0.5361328,0.78930664,-0.37097168,-0.13623047,0.18493652,158 
1.1138916,7.385254,-2.5787354,0.23144531,0.53466797,0.7878418,-0.37097168,-0.13623047,0.17944336,159 
0.16784668,7.30896,-2.4261475,0.23388672,0.5332031,0.7878418,-0.36767578,-0.13366699,0.17944336,160 
-0.21362305,6.5612793,-2.5177002,0.23486328,0.53393555,0.7883301,-0.36767578,-0.13366699,0.17944336,161 
-0.77819824,5.859375,-1.9836426,0.23535156,0.5354004,0.78930664,-0.37243652,-0.13256836,0.18530273,162 
-0.015258789,4.974365,-1.0528564,0.2355957,0.5373535,0.7902832,-0.37243652,-0.13256836,0.18530273,163 
0.44250488,4.4403076,-1.2359619,0.23583984,0.53881836,0.79052734,-0.36767578,-0.13769531,0.17578125,164 
0.15258789,7.7209473,-0.93078613,0.23608398,0.53881836,0.79052734,-0.36767578,-0.13769531,0.17578125,165 
0.44250488,3.5247803,-0.48828125,0.23583984,0.5383301,0.7897949,-0.36767578,-0.13769531,0.17578125,166 
0.30517578,3.1280518,-0.35095215,0.2355957,0.53759766,0.78881836,-0.36914062,-0.13476562,0.17578125,167 
0.32043457,2.5787354,-0.64086914,0.2355957,0.5358887,0.7885742,-0.36914062,-0.13476562,0.17578125,168 
-3.7078857,1.9836426,-0.61035156,0.23461914,0.5358887,0.78881836,-0.36914062,-0.13623047,0.17871094,169 
0.015258789,2.1820068,-0.7171631,0.23461914,0.5366211,0.7897949,-0.36547852,-0.13623047,0.17871094,170 
0.12207031,2.3498535,-0.9918213,0.23388672,0.5373535,0.79052734,-0.36547852,-0.13623047,0.17871094,171 
-0.33569336,2.4414062,-0.8087158,0.23364258,0.5383301,0.79052734,-0.36694336,-0.13806152,0.18273926,172 
-0.1373291,2.7008057,-0.76293945,0.2331543,0.53930664,0.79125977,-0.36694336,-0.13806152,0.18273926,173 
0.39672852,2.5787354,-1.0681152,0.23242188,0.54052734,0.79174805,-0.36694336,-0.1373291,0.1772461,174 
0.61035156,3.0517578,-0.90026855,0.23168945,0.5402832,0.7910156,-0.3684082,-0.1373291,0.1772461,175 
0.50354004,3.112793,-0.8239746,0.23095703,0.5397949,0.7902832,-0.3684082,-0.1373291,0.1772461,176 
1.0070801,2.5634766,-0.7324219,0.23071289,0.5385742,0.7890625,-0.3717041,-0.13623047,0.17797852,177 
0.47302246,2.6550293,-0.7171631,0.23022461,0.53686523,0.7883301,-0.3717041,-0.13623047,0.17797852,178 
0.45776367,2.4871826,-0.90026855,0.22998047,0.5354004,0.78881836,-0.368042,-0.13916016,0.17834473,179 
0.2593994,2.4414062,-1.1749268,0.22973633,0.5354004,0.7897949,-0.368042,-0.13916016,0.17834473,180 
0.0,2.670288,-1.1444092,0.23022461,0.5358887,0.7902832,-0.368042,-0.13916016,0.17834473,181 
-0.35095215,2.1972656,-1.3580322,0.22973633,0.53637695,0.7910156,-0.3720703,-0.13806152,0.18640137,182 
-0.39672852,2.5177002,-1.0681152,0.2290039,0.53759766,0.79174805,-0.3720703,-0.13806152,0.18640137,183 
-0.62561035,2.532959,-1.1749268,0.22851562,0.5390625,0.79125977,-0.36657715,-0.13806152,0.17907715,184 
-0.88500977,2.8076172,-1.0681152,0.22851562,0.5407715,0.79174805,-0.36657715,-0.13806152,0.17907715,185 
-0.64086914,2.8839111,-1.0070801,0.22827148,0.5422363,0.7922363,-0.36657715,-0.13806152,0.17907715,186 
-0.5187988,3.0822754,-0.8544922,0.22875977,0.5427246,0.79174805,-0.36621094,-0.13806152,0.18054199,187 
-1.1444092,2.456665,-0.61035156,0.22851562,0.5422363,0.79125977,-0.36621094,-0.13806152,0.18054199,188 
-0.39672852,2.9754639,-0.48828125,0.22851562,0.5419922,0.7907715,-0.36694336,-0.13879395,0.17578125,189 
-0.18310547,3.0670166,-0.6866455,0.2277832,0.54125977,0.79003906,-0.36694336,-0.13879395,0.17578125,190 
-0.1373291,2.9754639,-0.8087158,0.22753906,0.5407715,0.7897949,-0.36694336,-0.13879395,0.17578125,191 
0.19836426,3.2348633,-0.91552734,0.22753906,0.54003906,0.7897949,-0.36657715,-0.13659668,0.17687988,192 
0.1373291,3.326416,-0.9918213,0.2277832,0.5402832,0.7895508,-0.36657715,-0.13659668,0.17687988,193 
3.5552979,2.9907227,-0.5187988,0.22802734,0.54003906,0.79003906,-0.3684082,-0.13549805,0.1743164,194 
0.15258789,3.3111572,-1.0986328,0.2277832,0.54052734,0.79003906,-0.3684082,-0.13549805,0.1743164,195 
0.18310547,3.1433105,-0.7019043,0.22802734,0.54052734,0.7907715,-0.3684082,-0.13549805,0.1743164,196 
0.12207031,3.3874512,-1.3122559,0.22802734,0.5402832,0.7907715,-0.36950684,-0.13879395,0.1743164,197 
0.045776367,3.3569336,-1.0223389,0.22851562,0.54052734,0.79125977,-0.36950684,-0.13879395,0.1743164,198 
0.061035156,3.3874512,-1.1138916,0.22875977,0.5402832,0.79125977,-0.36401367,-0.13842773,0.17504883,199 
-0.10681152,3.2653809,-1.1444092,0.22875977,0.54052734,0.79174805,-0.36401367,-0.13842773,0.17504883,200 
-0.38146973,3.3111572,-1.1138916,0.22924805,0.5410156,0.79125977,-0.36401367,-0.13842773,0.17504883,201 
-0.35095215,3.250122,-1.373291,0.22875977,0.5415039,0.79003906,-0.36950684,-0.13696289,0.18273926,202 
-0.6561279,3.2653809,-1.1901855,0.2290039,0.5422363,0.7897949,-0.36950684,-0.13696289,0.18273926,203 
-0.2746582,2.8381348,-1.2664795,0.22949219,0.54296875,0.7890625,-0.368042,-0.13952637,0.18273926,204 
-3.90625,3.1280518,-1.5869141,0.22875977,0.5432129,0.7883301,-0.368042,-0.13952637,0.18273926,205 
-0.22888184,3.90625,-1.0681152,0.22851562,0.54418945,0.7878418,-0.368042,-0.13952637,0.18273926,206 
0.12207031,3.5858154,-1.2512207,0.2290039,0.54467773,0.78808594,-0.3651123,-0.13806152,0.18127441,207 
0.45776367,3.40271,-1.2817383,0.22949219,0.5444336,0.7878418,-0.3651123,-0.13806152,0.18127441,208 
0.5493164,3.5552979,-1.1291504,0.22949219,0.5437012,0.78808594,-0.368042,-0.13439941,0.17687988,209 
0.076293945,3.463745,-1.159668,0.22949219,0.54296875,0.78808594,-0.368042,-0.13439941,0.17687988,210 
0.4272461,3.4942627,-0.869751,0.22924805,0.54296875,0.7883301,-0.368042,-0.13439941,0.17687988,211 
0.2593994,3.1738281,-1.2512207,0.22949219,0.5427246,0.78881836,-0.3687744,-0.13586426,0.17614746,212 
0.6561279,3.1280518,-1.0528564,0.2290039,0.54174805,0.7895508,-0.3687744,-0.13586426,0.17614746,213 
0.2746582,2.9296875,-1.1444092,0.2290039,0.54174805,0.7897949,-0.36328125,-0.13549805,0.17980957,214 
0.5645752,3.4179688,-0.8392334,0.2290039,0.5419922,0.7890625,-0.36328125,-0.13549805,0.17980957,215 
0.48828125,2.8076172,-0.91552734,0.22875977,0.54248047,0.7890625,-0.36328125,-0.13549805,0.17980957,216 
0.45776367,3.250122,-0.74768066,0.22875977,0.54296875,0.7890625,-0.36914062,-0.13439941,0.17944336,217 
-0.2593994,2.7008057,-0.9613037,0.22875977,0.5427246,0.7890625,-0.36914062,-0.13439941,0.17944336,218 
-0.045776367,2.4414062,-0.93078613,0.22827148,0.5427246,0.78881836,-0.36657715,-0.1340332,0.17614746,219 
0.2593994,2.5482178,-0.9613037,0.22827148,0.54248047,0.78881836,-0.36657715,-0.1340332,0.17614746,220 
-0.22888184,2.4108887,-1.0375977,0.22802734,0.5422363,0.7885742,-0.36657715,-0.1340332,0.17614746,221 
-0.5187988,2.0751953,-0.579834,0.2277832,0.5419922,0.7895508,-0.37023926,-0.13586426,0.17907715,222 
-0.33569336,2.029419,-0.579834,0.22680664,0.54248047,0.7895508,-0.37023926,-0.13586426,0.17907715,223 
-0.7019043,2.243042,-0.9460449,0.22558594,0.54296875,0.79003906,-0.36694336,-0.13476562,0.18017578,224 
-0.62561035,2.8381348,-0.90026855,0.22460938,0.54345703,0.7897949,-0.36694336,-0.13476562,0.18017578,225 
-1.3580322,3.0822754,-0.8087158,0.22387695,0.5437012,0.7890625,-0.36694336,-0.13476562,0.18017578,226 
-1.9073486,3.8909912,-1.4190674,0.22338867,0.5444336,0.7895508,-0.3684082,-0.13879395,0.18054199,227 
-2.0599365,4.0130615,-1.5258789,0.22265625,0.5449219,0.7895508,-0.3684082,-0.13879395,0.18054199,228 
-2.5482178,4.6081543,-1.0223389,0.22216797,0.54541016,0.7895508,-0.3651123,-0.14099121,0.17504883,229 
-1.8463135,4.4555664,-1.0681152,0.22314453,0.5461426,0.78881836,-0.3651123,-0.14099121,0.17504883,230 
-1.3885498,4.3640137,-1.0681152,0.22314453,0.5463867,0.78881836,-0.3651123,-0.14099121,0.17504883,231 
-0.9765625,4.3640137,-1.3122559,0.22314453,0.54663086,0.7890625,-0.36730957,-0.13696289,0.18237305,232 
0.045776367,4.3640137,-1.4038086,0.22314453,0.5461426,0.78881836,-0.36730957,-0.13696289,0.18237305,233 
-0.35095215,4.8065186,-1.3885498,0.22338867,0.545166,0.7883301,-0.36657715,-0.13513184,0.1776123,234 
0.10681152,4.470825,-1.4648438,0.22436523,0.5449219,0.7883301,-0.36657715,-0.13513184,0.1776123,235 
-0.1373291,4.8065186,-1.6021729,0.2253418,0.5449219,0.7883301,-0.36657715,-0.13513184,0.1776123,236 
-0.35095215,4.3792725,-1.7700195,0.22558594,0.5449219,0.78808594,-0.36767578,-0.13806152,0.17541504,237 
-0.030517578,4.058838,-1.1901855,0.2265625,0.54541016,0.7883301,-0.36767578,-0.13806152,0.17541504,238 
-0.38146973,4.1656494,-1.2359619,0.2265625,0.54541016,0.7878418,-0.36547852,-0.13952637,0.17468262,239 
-0.50354004,4.348755,-1.7700195,0.22705078,0.54541016,0.7885742,-0.36547852,-0.13952637,0.17468262,240 
-0.21362305,4.501343,-1.2664795,0.22729492,0.5456543,0.78808594,-0.36547852,-0.13952637,0.17468262,241 
-0.6713867,3.90625,-1.3122559,0.22802734,0.545166,0.7878418,-0.36694336,-0.13806152,0.18127441,242 
-0.33569336,3.9672852,-0.9918213,0.22851562,0.5449219,0.78686523,-0.36694336,-0.13806152,0.18127441,243 
-0.15258789,4.043579,-1.1901855,0.2277832,0.54418945,0.7858887,-0.36621094,-0.13586426,0.17834473,244 
-0.1373291,3.6010742,-1.3122559,0.22705078,0.5444336,0.78515625,-0.36621094,-0.13586426,0.17834473,245 
-0.4272461,3.7231445,-1.083374,0.22729492,0.5444336,0.7849121,-0.36621094,-0.13586426,0.17834473,246 
-0.15258789,3.036499,-1.4953613,0.22705078,0.545166,0.7854004,-0.36950684,-0.13659668,0.18310547,247 
-0.4119873,3.8757324,-1.2054443,0.22680664,0.54589844,0.7858887,-0.36950684,-0.13659668,0.18310547,248 
0.030517578,3.326416,-1.3885498,0.22680664,0.5461426,0.78637695,-0.37316895,-0.13696289,0.17907715,249 
-0.12207031,3.3111572,-1.0681152,0.22631836,0.54711914,0.7861328,-0.37316895,-0.13696289,0.17907715,250 
-0.21362305,3.7078857,-1.4190674,0.22607422,0.5476074,0.7861328,-0.37316895,-0.13696289,0.17907715,251 
-0.6713867,3.8146973,-1.3275146,0.22583008,0.5480957,0.78564453,-0.37280273,-0.13769531,0.17468262,252 
-0.4272461,4.180908,-1.6784668,0.22583008,0.54833984,0.78637695,-0.37280273,-0.13769531,0.17468262,253 
-0.5950928,4.4403076,-1.6174316,0.22680664,0.54833984,0.78686523,-0.368042,-0.13842773,0.17944336,254 
-0.8087158,3.8604736,-1.5411377,0.22680664,0.5488281,0.7871094,-0.368042,-0.13842773,0.17944336,255 
-0.47302246,3.829956,-1.3122559,0.22705078,0.548584,0.78686523,-0.368042,-0.13842773,0.17944336,0 
-0.18310547,4.135132,-1.1138916,0.2265625,0.5480957,0.78686523,-0.36914062,-0.14025879,0.1809082,1 
-0.2593994,4.1046143,-0.9918213,0.22705078,0.54785156,0.78686523,-0.36914062,-0.14025879,0.1809082,2 
-0.21362305,4.1503906,-1.1291504,0.22631836,0.5476074,0.7861328,-0.36730957,-0.13989258,0.17980957,3 
-0.061035156,0.0,-0.9765625,0.22607422,0.5476074,0.7861328,-0.36730957,-0.13989258,0.17980957,4 
-0.39672852,3.8757324,-1.0528564,0.2265625,0.5463867,0.78564453,-0.36730957,-0.13989258,0.17980957,5 
-0.5187988,0.0,-0.91552734,0.2265625,0.546875,0.7858887,-0.36694336,-0.14135742,0.17541504,6 
-0.2593994,3.7231445,-1.0375977,0.2265625,0.546875,0.78515625,-0.36694336,-0.14135742,0.17541504,7 
-0.38146973,3.036499,-1.0375977,0.22680664,0.5473633,0.7849121,-0.37060547,-0.13623047,0.17834473,8 
-0.30517578,3.3111572,-0.62561035,0.2265625,0.54833984,0.7849121,-0.37060547,-0.13623047,0.17834473,9 
-0.44250488,3.189087,-1.0375977,0.22680664,0.5493164,0.78564453,-0.37060547,-0.13623047,0.17834473,10 
-3.8757324,2.8533936,-1.4343262,0.2265625,0.5500488,0.7861328,-0.368042,-0.13842773,0.17102051,11 
0.39672852,3.2653809,-0.9765625,0.22680664,0.55126953,0.7871094,-0.368042,-0.13842773,0.17102051,12 
-0.1373291,3.479004,-1.373291,0.22631836,0.5517578,0.7873535,-0.36547852,-0.13842773,0.17834473,13 
0.35095215,3.6773682,-1.159668,0.22607422,0.5517578,0.7878418,-0.36547852,-0.13842773,0.17834473,14 
0.5187988,3.4332275,-1.3580322,0.22607422,0.5510254,0.7878418,-0.36547852,-0.13842773,0.17834473,15 
0.869751,3.463745,-1.8615723,0.22558594,0.5505371,0.7878418,-0.36657715,-0.13879395,0.18164062,16 
1.3580322,3.753662,-2.1209717,0.22436523,0.5510254,0.7885742,-0.36657715,-0.13879395,0.18164062,17 
1.5563965,4.333496,-2.2735596,0.22290039,0.5517578,0.7866211,-0.368042,-0.13879395,0.18273926,18 
1.2512207,4.928589,-2.6550293,0.22338867,0.5510254,0.7854004,-0.368042,-0.13879395,0.18273926,19 
1.3427734,5.218506,-2.319336,0.22509766,0.5498047,0.7836914,-0.368042,-0.13879395,0.18273926,20 
0.91552734,5.0811768,-2.1972656,0.22729492,0.54907227,0.7832031,-0.36730957,-0.14025879,0.18054199,21 
1.3427734,4.5318604,-2.2583008,0.2290039,0.548584,0.78271484,-0.36730957,-0.14025879,0.18054199,22 
1.5106201,3.9978027,-1.7089844,0.22998047,0.548584,0.782959,-0.36730957,-0.13806152,0.1809082,23 
1.1749268,4.0893555,-1.3427734,0.23022461,0.54833984,0.7832031,-0.36730957,-0.13806152,0.1809082,24 
0.76293945,3.5247803,-1.4190674,0.23071289,0.5473633,0.7832031,-0.36730957,-0.13806152,0.1809082,25 
0.4119873,3.0975342,-1.2207031,0.23071289,0.546875,0.7832031,-0.36767578,-0.13952637,0.1743164,26 
0.2746582,2.89917,-1.449585,0.23022461,0.54711914,0.78344727,-0.36767578,-0.13952637,0.1743164,27 
0.7171631,2.9449463,-1.4190674,0.22998047,0.5473633,0.78393555,-0.36621094,-0.13659668,0.18164062,28 
0.6713867,2.8381348,-1.0375977,0.22973633,0.5476074,0.78466797,-0.36621094,-0.13659668,0.18164062,29 
0.015258789,2.7008057,-1.4648438,0.22875977,0.5476074,0.7854004,-0.36621094,-0.13659668,0.18164062,30 
0.16784668,2.7160645,-1.0528564,0.22802734,0.5476074,0.7854004,-0.3651123,-0.13989258,0.17834473,31 
0.21362305,2.8533936,-1.0070801,0.22729492,0.5476074,0.78466797,-0.3651123,-0.13989258,0.17834473,32 
-0.19836426,2.89917,-1.2969971,0.2265625,0.5480957,0.78393555,-0.3651123,-0.13476562,0.18237305,33 
-0.030517578,3.479004,-1.0375977,0.22583008,0.5480957,0.78466797,-0.3651123,-0.13476562,0.18237305,34 
-0.18310547,3.2653809,-1.3580322,0.2253418,0.5476074,0.7841797,-0.3651123,-0.13476562,0.18237305,35 
-0.10681152,3.463745,-1.0070801,0.22436523,0.54711914,0.78466797,-0.36694336,-0.1373291,0.17907715,36 
-0.061035156,3.5858154,-1.083374,0.22363281,0.54785156,0.78466797,-0.36694336,-0.1373291,0.17907715,37 
-0.869751,3.4942627,-0.9613037,0.22314453,0.5476074,0.78564453,-0.36730957,-0.13659668,0.17834473,38 
-1.083374,4.425049,-1.0528564,0.22216797,0.5480957,0.78564453,-0.36730957,-0.13659668,0.17834473,39 
-1.5869141,4.974365,-1.8157959,0.22167969,0.5488281,0.78637695,-0.36730957,-0.13659668,0.17834473,40 
-2.0141602,6.591797,-2.0141602,0.22045898,0.5500488,0.78759766,-0.36364746,-0.13989258,0.17907715,41 
-1.9836426,6.668091,-2.029419,0.2199707,0.55249023,0.78881836,-0.36364746,-0.13989258,0.17907715,42 
-1.5411377,7.1868896,-2.7618408,0.22021484,0.5551758,0.79052734,-0.36657715,-0.13769531,0.17907715,43 
-0.22888184,7.095337,-2.5939941,0.22045898,0.5576172,0.79125977,-0.36657715,-0.13769531,0.17907715,44 
0.7171631,7.827759,-2.89917,0.22143555,0.55859375,0.7915039,-0.36657715,-0.13769531,0.17907715,45 
1.8157959,7.4310303,-2.9907227,0.22167969,0.5583496,0.79052734,-0.3687744,-0.13659668,0.18054199,46 
2.029419,8.071899,-3.3874512,0.22363281,0.55688477,0.7895508,-0.3687744,-0.13659668,0.18054199,47 
3.4484863,7.6293945,-2.9907227,0.22558594,0.5546875,0.7883301,-0.3717041,-0.1373291,0.18017578,48 
2.89917,7.4768066,-3.2348633,0.22851562,0.55249023,0.7844238,-0.3717041,-0.1373291,0.18017578,49 
2.6855469,6.866455,-2.8076172,0.23144531,0.5498047,0.78125,-0.3717041,-0.1373291,0.18017578,50 
2.5024414,6.576538,-2.532959,0.23413086,0.54833984,0.77905273,-0.36621094,-0.1373291,0.17834473,51 
2.243042,5.6762695,-2.3498535,0.2368164,0.5476074,0.7775879,-0.36621094,-0.1373291,0.17834473,52 
2.0141602,5.1116943,-1.9989014,0.23999023,0.546875,0.7763672,-0.3717041,-0.14025879,0.1776123,53 
1.7242432,4.0283203,-1.3885498,0.24169922,0.5461426,0.77563477,-0.3717041,-0.14025879,0.1776123,54 
1.8157959,2.9907227,-0.5645752,0.24365234,0.54711914,0.77563477,-0.3717041,-0.14025879,0.1776123,55 
0.91552734,2.2277832,-0.30517578,0.24414062,0.5473633,0.7751465,-0.36987305,-0.13586426,0.1776123,56 
1.3427734,1.5258789,0.030517578,0.24414062,0.5473633,0.7753906,-0.36987305,-0.13586426,0.1776123,57 
0.7019043,0.62561035,0.2593994,0.24291992,0.54785156,0.77685547,-0.36657715,-0.13769531,0.18530273,58 
0.16784668,0.77819824,0.076293945,0.23999023,0.54785156,0.7783203,-0.36657715,-0.13769531,0.18530273,59 
0.74768066,0.10681152,0.33569336,0.23706055,0.548584,0.7800293,-0.36657715,-0.13769531,0.18530273,60 
0.64086914,1.1901855,0.5187988,0.23388672,0.55029297,0.7817383,-0.36584473,-0.13916016,0.17944336,61 
1.1749268,1.0528564,0.38146973,0.23022461,0.55029297,0.78222656,-0.36584473,-0.13916016,0.17944336,62 
1.0223389,1.1444092,0.0,0.22802734,0.5488281,0.7836914,-0.36730957,-0.13879395,0.18347168,63 
0.7019043,2.2583008,-0.88500977,0.22436523,0.54785156,0.7849121,-0.36730957,-0.13879395,0.18347168,64 
0.36621094,2.9449463,-0.9765625,0.22216797,0.54785156,0.7861328,-0.36730957,-0.13879395,0.18347168,65 
0.33569336,3.3111572,-0.91552734,0.2211914,0.5476074,0.78637695,-0.36767578,-0.13623047,0.17687988,66 
0.50354004,3.6773682,-1.373291,0.22045898,0.5473633,0.78686523,-0.36767578,-0.13623047,0.17687988,67 
-0.030517578,4.135132,-1.8463135,0.21948242,0.5480957,0.7873535,-0.36950684,-0.1373291,0.17980957,68 
-0.1373291,4.562378,-1.4801025,0.21875,0.54785156,0.78759766,-0.36950684,-0.1373291,0.17980957,69 
-0.2593994,4.486084,-1.8157959,0.21875,0.548584,0.7878418,-0.36950684,-0.1373291,0.17541504,70 
0.2593994,4.547119,-1.7852783,0.21850586,0.5488281,0.7878418,-0.36767578,-0.1373291,0.17541504,71 
0.48828125,4.7302246,-2.1514893,0.21875,0.5488281,0.78759766,-0.36767578,-0.1373291,0.17541504,72 
-0.030517578,4.776001,-2.0141602,0.21899414,0.5493164,0.7871094,-0.3684082,-0.13842773,0.18310547,73 
0.5340576,4.6539307,-1.8615723,0.21948242,0.54956055,0.7861328,-0.3684082,-0.13842773,0.18310547,74 
0.19836426,4.3945312,-1.8310547,0.22070312,0.5500488,0.7854004,-0.3684082,-0.13842773,0.18310547,75 
0.8544922,4.5318604,-2.0141602,0.22167969,0.55029297,0.78515625,-0.36584473,-0.13916016,0.17907715,76 
0.50354004,4.8065186,-1.5411377,0.22338867,0.5505371,0.78466797,-0.36584473,-0.13916016,0.17907715,77 
0.5187988,4.425049,-1.373291,0.22460938,0.5515137,0.7849121,-0.3684082,-0.13476562,0.18273926,78 
0.8087158,4.3945312,-1.3580322,0.22607422,0.55126953,0.78466797,-0.3684082,-0.13476562,0.18273926,79 
0.9460449,4.486084,-1.5716553,0.22753906,0.55126953,0.7849121,-0.3684082,-0.13476562,0.18273926,80 
1.4190674,4.6081543,-1.2817383,0.2277832,0.55126953,0.7854004,-0.368042,-0.13659668,0.18237305,81 
1.1749268,4.0740967,-1.3885498,0.22851562,0.55078125,0.7861328,-0.368042,-0.13659668,0.18237305,82 
0.79345703,3.9520264,-1.7700195,0.22924805,0.5510254,0.78515625,-0.3687744,-0.13806152,0.18640137,83 
1.3427734,4.3792725,-1.5258789,0.22998047,0.5510254,0.78466797,-0.3687744,-0.13806152,0.18640137,84 
0.90026855,4.638672,-1.5869141,0.23046875,0.5505371,0.7836914,-0.3687744,-0.13806152,0.17578125,85 
0.8239746,5.050659,-1.5563965,0.2319336,0.55029297,0.78222656,-0.36767578,-0.1373291,0.17578125,86 
0.8544922,4.91333,-1.8005371,0.23291016,0.5500488,0.78125,-0.36767578,-0.1373291,0.17578125,87 
0.76293945,4.974365,-1.9683838,0.234375,0.5500488,0.78027344,-0.368042,-0.13989258,0.18530273,88 
0.93078613,4.8065186,-1.6784668,0.23510742,0.5500488,0.779541,-0.368042,-0.13989258,0.18530273,89 
0.77819824,4.8065186,-1.4801025,0.23608398,0.5500488,0.779541,-0.368042,-0.13989258,0.17687988,90 
0.9613037,4.272461,-1.7852783,0.23657227,0.54956055,0.7800293,-0.36584473,-0.13879395,0.17687988,91 
0.90026855,4.6539307,-1.4801025,0.2368164,0.54956055,0.77978516,-0.36584473,-0.13879395,0.17687988,92 
0.39672852,3.8604736,-1.2969971,0.2368164,0.5498047,0.7805176,-0.36914062,-0.13842773,0.17944336,93 
0.62561035,4.0283203,-1.3275146,0.2368164,0.5500488,0.78149414,-0.36914062,-0.13842773,0.17944336,94 
0.8544922,3.2653809,-1.0375977,0.23608398,0.5510254,0.7817383,-0.36914062,-0.13842773,0.17871094,95 
0.77819824,2.9144287,-1.2969971,0.23583984,0.55126953,0.7824707,-0.36621094,-0.13696289,0.17871094,96 
1.1138916,2.746582,-0.8392334,0.23535156,0.5515137,0.7817383,-0.36621094,-0.13696289,0.17871094,97 
1.159668,2.5024414,-0.64086914,0.23413086,0.5515137,0.7817383,-0.3684082,-0.13769531,0.18566895,98 
1.4801025,2.243042,-0.5950928,0.23364258,0.5515137,0.7819824,-0.3684082,-0.13769531,0.18566895,99 
1.3580322,2.1972656,-0.21362305,0.23242188,0.5505371,0.7824707,-0.3684082,-0.14135742,0.17797852,100 
1.7089844,2.0751953,-0.4119873,0.23120117,0.5500488,0.7824707,-0.36767578,-0.14135742,0.17797852,101 
1.6784668,1.9683838,-0.47302246,0.23022461,0.54956055,0.7824707,-0.36767578,-0.14135742,0.17797852,102 
1.5258789,1.3885498,-0.2593994,0.22924805,0.5493164,0.7836914,-0.3651123,-0.13806152,0.1842041,103 
1.6479492,1.3122559,-0.33569336,0.22802734,0.54907227,0.78466797,-0.3651123,-0.13806152,0.1842041,104 
0.8239746,1.5106201,-0.22888184,0.22705078,0.5488281,0.7858887,-0.3651123,-0.13842773,0.17871094,105 
1.1901855,1.1749268,0.15258789,0.22558594,0.54907227,0.78686523,-0.368042,-0.13842773,0.17871094,106 
1.159668,1.3275146,0.091552734,0.2241211,0.54956055,0.7873535,-0.368042,-0.13842773,0.17871094,107 
0.5493164,1.6479492,-0.44250488,0.22290039,0.5493164,0.7871094,-0.368042,-0.14025879,0.18786621,108 
-0.18310547,2.6245117,-0.6713867,0.22143555,0.54956055,0.7866211,-0.368042,-0.14025879,0.18786621,109 
-0.5340576,3.40271,-1.1444092,0.22021484,0.54956055,0.7861328,-0.368042,-0.13842773,0.18200684,110 
-0.4272461,3.982544,-1.1749268,0.21972656,0.55029297,0.7866211,-0.36547852,-0.13842773,0.18200684,111 
-0.5950928,4.3945312,-1.1749268,0.21923828,0.55200195,0.7871094,-0.36547852,-0.13842773,0.18200684,112 
1.1138916,5.1574707,-1.3580322,0.21899414,0.5546875,0.78637695,-0.36621094,-0.13879395,0.1842041,115 
1.7242432,5.0811768,-1.5411377,0.21948242,0.5529785,0.78637695,-0.36621094,-0.13879395,0.1842041,116 
1.9683838,4.8980713,-1.9226074,0.22143555,0.5515137,0.78564453,-0.36621094,-0.13879395,0.1842041,117 
1.3885498,5.0201416,-1.8463135,0.22363281,0.5498047,0.78515625,-0.37097168,-0.13696289,0.18200684,118 
1.6021729,5.3253174,-1.8615723,0.22460938,0.54907227,0.7849121,-0.37097168,-0.13696289,0.18200684,119 
1.5106201,4.9591064,-2.2583008,0.22583008,0.5488281,0.7844238,-0.37097168,-0.1373291,0.1842041,120 
1.5411377,5.1727295,-1.9989014,0.22680664,0.54833984,0.7849121,-0.3684082,-0.1373291,0.1842041,121 
0.6561279,4.928589,-1.8463135,0.22753906,0.5488281,0.7849121,-0.3684082,-0.1373291,0.1842041,122 
0.88500977,5.218506,-1.4801025,0.2277832,0.5493164,0.7849121,-0.3687744,-0.13623047,0.18273926,123 
0.8239746,4.79126,-1.7089844,0.22802734,0.54907227,0.7841797,-0.3687744,-0.13623047,0.18273926,124 
0.64086914,4.928589,-1.7242432,0.22875977,0.5488281,0.7836914,-0.36694336,-0.13696289,0.17907715,125 
0.9918213,4.699707,-1.4801025,0.2290039,0.5493164,0.78271484,-0.36694336,-0.13696289,0.17907715,126 
0.61035156,4.5318604,-1.5258789,0.22924805,0.5493164,0.78149414,-0.36694336,-0.13696289,0.17907715,127 
0.5950928,4.3945312,-1.449585,0.22973633,0.5500488,0.78100586,-0.36694336,-0.14135742,0.18640137,128 
0.79345703,3.768921,-1.6021729,0.22949219,0.5505371,0.7807617,-0.36694336,-0.14135742,0.18640137,129 
0.64086914,3.7231445,-1.6021729,0.22949219,0.5515137,0.78125,-0.36547852,-0.14025879,0.1809082,130 
1.083374,4.0740967,-1.3122559,0.22949219,0.5515137,0.7817383,-0.36547852,-0.14025879,0.1809082,131 
1.3275146,4.4555664,-1.3427734,0.23022461,0.55249023,0.7819824,-0.36547852,-0.14025879,0.1809082,132 
1.0986328,3.7231445,-1.6937256,0.22973633,0.55249023,0.7819824,-0.3713379,-0.1373291,0.18273926,133 
0.93078613,3.6010742,-1.2817383,0.22875977,0.5517578,0.78222656,-0.3713379,-0.1373291,0.18273926,134 
0.45776367,3.6010742,-1.373291,0.22924805,0.5510254,0.7824707,-0.3647461,-0.13879395,0.18310547,135 
0.48828125,3.7384033,-1.8157959,0.22875977,0.55029297,0.7832031,-0.3647461,-0.13879395,0.18310547,136 
0.030517578,4.0283203,-1.449585,0.22802734,0.55029297,0.78344727,-0.3647461,-0.13879395,0.18310547,137 
0.15258789,4.043579,-1.8615723,0.22705078,0.55078125,0.78344727,-0.36621094,-0.13916016,0.1907959,138 
0.47302246,4.6691895,-2.3651123,0.22583008,0.5517578,0.7844238,-0.36621094,-0.13916016,0.1907959,139 
0.869751,4.852295,-2.5482178,0.22485352,0.5527344,0.7861328,-0.36767578,-0.14025879,0.18273926,140 
1.3885498,5.218506,-2.670288,0.2253418,0.5539551,0.78637695,-0.36767578,-0.14025879,0.18273926,141 
0.5187988,4.852295,-2.4261475,0.22607422,0.5515137,0.7854004,-0.36767578,-0.14025879,0.18273926,142 
0.74768066,4.5776367,-2.5482178,0.22460938,0.5480957,0.7832031,-0.3684082,-0.14099121,0.17944336,143 
0.93078613,6.1035156,-3.250122,0.22167969,0.548584,0.78271484,-0.3684082,-0.14099121,0.17944336,144 
0.9765625,7.6446533,-4.3182373,0.21972656,0.5500488,0.7854004,-0.36657715,-0.140625,0.18457031,145 
1.4801025,8.804321,-5.218506,0.22094727,0.55200195,0.78881836,-0.36657715,-0.140625,0.18457031,146 
1.9683838,9.231567,-5.4473877,0.22436523,0.5546875,0.7910156,-0.36657715,-0.140625,0.18457031,147 
3.189087,9.552002,-4.425049,0.22851562,0.55810547,0.78930664,-0.36621094,-0.13916016,0.18237305,148 
2.7770996,9.033203,-3.6773682,0.23095703,0.5551758,0.7854004,-0.36621094,-0.13916016,0.18237305,149 
0.79345703,9.353638,-4.486084,0.23120117,0.548584,0.7788086,-0.37023926,-0.14208984,0.18566895,150 
1.083374,11.108398,-5.2948,0.23046875,0.54833984,0.7751465,-0.37023926,-0.14208984,0.18566895,151 
1.1749268,12.512207,-5.844116,0.23266602,0.5493164,0.7763672,-0.37023926,-0.14208984,0.18566895,152 
1.8005371,11.611938,-5.279541,0.23706055,0.5461426,0.78344727,-0.37097168,-0.13916016,0.18310547,153 
1.1901855,10.238647,-4.91333,0.23925781,0.5444336,0.7902832,-0.37097168,-0.13916016,0.18310547,154 
0.5340576,10.147095,-4.5776367,0.23828125,0.54711914,0.7944336,-0.36767578,-0.13623047,0.18200684,155 
1.7242432,10.757446,-4.0283203,0.23583984,0.5529785,0.7949219,-0.36767578,-0.13623047,0.18200684,156 
1.9683838,10.559082,-4.1656494,0.23413086,0.5566406,0.7939453,-0.36767578,-0.13623047,0.18200684,157 
2.0751953,10.391235,-4.1046143,0.23266602,0.55566406,0.7919922,-0.37243652,-0.14135742,0.18310547,158 
2.7770996,10.421753,-3.9672852,0.2319336,0.5527344,0.78930664,-0.37243652,-0.14135742,0.18310547,159 
2.8381348,10.513306,-4.0130615,0.23242188,0.5505371,0.7871094,-0.3713379,-0.13989258,0.18310547,160 
3.616333,10.1623535,-4.1503906,0.23413086,0.5498047,0.78564453,-0.3713379,-0.13989258,0.18310547,161 
4.0893555,9.0789795,-3.9672852,0.23583984,0.54956055,0.7844238,-0.3713379,-0.13989258,0.18310547,162 
5.706787,8.911133,-4.425049,0.23828125,0.5488281,0.7832031,-0.37316895,-0.13916016,0.18164062,163 
5.706787,7.6446533,-4.40979,0.2397461,0.5480957,0.7817383,-0.37316895,-0.13916016,0.18164062,164 
5.584717,6.790161,-4.3029785,0.24121094,0.54663086,0.78100586,-0.36730957,-0.13842773,0.18127441,165 
5.844116,5.9051514,-4.257202,0.24316406,0.5461426,0.7805176,-0.36730957,-0.13842773,0.18127441,166 
6.0424805,5.3253174,-3.7841797,0.24584961,0.54711914,0.77978516,-0.36730957,-0.13842773,0.18127441,167 
6.500244,4.501343,-3.5247803,0.24926758,0.54833984,0.7780762,-0.3717041,-0.13769531,0.18530273,168 
6.713867,3.753662,-2.9754639,0.2529297,0.54833984,0.77612305,-0.3717041,-0.13769531,0.18530273,169 
6.5307617,3.0670166,-2.4414062,0.25732422,0.54711914,0.77441406,-0.37097168,-0.13696289,0.1809082,170 
7.019043,1.3885498,-2.1972656,0.26098633,0.54663086,0.7746582,-0.37097168,-0.13696289,0.1809082,171 
6.134033,0.12207031,-1.2359619,0.26367188,0.54541016,0.7763672,-0.37097168,-0.13696289,0.1809082,172 
5.279541,-1.3427734,-0.6561279,0.26538086,0.5439453,0.779541,-0.3713379,-0.13439941,0.18676758,173 
4.40979,-2.9449463,-0.47302246,0.265625,0.5407715,0.7824707,-0.3713379,-0.13439941,0.18676758,174 
2.1362305,-3.8146973,0.0,0.2631836,0.5378418,0.7844238,-0.36950684,-0.13623047,0.1842041,175 
-0.061035156,-4.6539307,-0.061035156,0.25878906,0.53637695,0.78515625,-0.36950684,-0.13623047,0.1842041,176 
-2.456665,-4.638672,-0.30517578,0.2529297,0.5341797,0.7832031,-0.36950684,-0.13623047,0.1842041,177 
-3.692627,-3.8604736,3.7994385,0.24487305,0.53344727,0.78149414,-0.37060547,-0.13439941,0.18017578,178 
-4.5776367,-1.8310547,-0.47302246,0.23876953,0.5341797,0.7800293,-0.37060547,-0.13439941,0.18017578,179 
-4.974365,-1.0681152,-1.2207031,0.23388672,0.53393555,0.7783203,-0.36914062,-0.13623047,0.18457031,180 
-3.4484863,0.2746582,-2.0751953,0.22973633,0.5341797,0.7775879,-0.36914062,-0.13623047,0.18457031,181 
-3.7231445,1.0070801,-3.1280518,0.2265625,0.5354004,0.77685547,-0.36914062,-0.13623047,0.18457031,182 
-2.609253,2.1820068,-3.616333,0.22387695,0.5378418,0.77734375,-0.37097168,-0.13586426,0.18200684,183 
-1.8310547,2.9144287,-4.333496,0.22143555,0.54174805,0.7780762,-0.37097168,-0.13586426,0.18200684,184 
-1.6174316,3.3874512,-4.928589,0.2199707,0.5461426,0.779541,-0.3720703,-0.13879395,0.18493652,185 
-0.5645752,4.8065186,-4.3945312,0.21972656,0.5515137,0.7805176,-0.3720703,-0.13879395,0.18493652,186 
0.289917,5.126953,-3.9978027,0.22045898,0.5559082,0.78222656,-0.3720703,-0.13879395,0.18493652,187 
1.1749268,5.6762695,-4.180908,0.22241211,0.55908203,0.78466797,-0.37426758,-0.13696289,0.18200684,188 
3.189087,6.80542,-3.1433105,0.22436523,0.5600586,0.78686523,-0.37426758,-0.13696289,0.18200684,189 
3.9367676,6.3171387,-3.036499,0.22607422,0.55859375,0.7878418,-0.37097168,-0.13659668,0.18347168,190 
4.6081543,6.8206787,-2.8686523,0.2277832,0.55444336,0.7895508,-0.37097168,-0.13659668,0.18347168,191 
4.79126,7.095337,-2.5787354,0.23022461,0.54907227,0.7897949,-0.37097168,-0.13659668,0.18347168,192 
4.2266846,7.507324,-2.39563,0.23266602,0.54345703,0.79003906,-0.37023926,-0.13879395,0.18273926,193 
3.9672852,7.171631,-2.2125244,0.23535156,0.5385742,0.78930664,-0.37023926,-0.13879395,0.18273926,194 
3.1433105,7.30896,-2.105713,0.23852539,0.5349121,0.78881836,-0.36950684,-0.13696289,0.17651367,195 
2.7618408,6.576538,-2.1209717,0.24145508,0.53222656,0.78808594,-0.36950684,-0.13696289,0.17651367,196 
1.6784668,6.1798096,-1.5716553,0.24389648,0.5305176,0.7871094,-0.36950684,-0.13696289,0.17651367,197 
0.7324219,5.630493,-1.5869141,0.24560547,0.53125,0.78637695,-0.37023926,-0.13696289,0.17907715,198 
0.64086914,5.5389404,-1.4190674,0.24707031,0.53222656,0.78515625,-0.37023926,-0.13696289,0.17907715,199 
0.35095215,5.065918,-1.1901855,0.24829102,0.53393555,0.7836914,-0.3713379,-0.13769531,0.1842041,200 
0.5493164,5.2337646,-0.88500977,0.24804688,0.53637695,0.78271484,-0.3713379,-0.13769531,0.1842041,201 
0.6713867,5.4626465,-0.79345703,0.24804688,0.53808594,0.78100586,-0.3713379,-0.13769531,0.1842041,202 
0.36621094,5.355835,-0.74768066,0.24780273,0.5390625,0.7807617,-0.37060547,-0.13769531,0.18054199,203 
0.64086914,5.4473877,-1.0375977,0.2475586,0.54003906,0.7800293,-0.37060547,-0.13769531,0.18054199,204 
0.6713867,5.92041,-1.0223389,0.2475586,0.5407715,0.7805176,-0.3720703,-0.14025879,0.1809082,205 
0.6561279,5.4779053,-0.64086914,0.24780273,0.5410156,0.7807617,-0.3720703,-0.14025879,0.1809082,206 
0.48828125,6.011963,-1.0070801,0.24780273,0.5415039,0.78100586,-0.3720703,-0.14025879,0.1809082,207 
0.77819824,5.9051514,-0.6713867,0.24926758,0.5415039,0.78125,-0.37573242,-0.1340332,0.18017578,208 
0.9460449,5.432129,-0.76293945,0.25024414,0.54125977,0.78149414,-0.37573242,-0.1340332,0.18017578,209 
0.45776367,4.760742,-0.5340576,0.25195312,0.5402832,0.78100586,-0.36950684,-0.13879395,0.18200684,210 
0.44250488,4.1046143,-0.5340576,0.25341797,0.53881836,0.78100586,-0.36950684,-0.13879395,0.18200684,211 
-0.21362305,3.7231445,-0.19836426,0.2548828,0.5366211,0.7805176,-0.36950684,-0.13879395,0.18200684,212 
3.6621094,2.8686523,0.22888184,0.25561523,0.53564453,0.7800293,-0.37280273,-0.13623047,0.18200684,213 
-1.1138916,2.319336,0.5187988,0.25610352,0.53515625,0.77978516,-0.37280273,-0.13623047,0.18200684,214 
-1.2054443,0.90026855,0.7171631,0.25585938,0.53515625,0.779541,-0.37646484,-0.13806152,0.18273926,215 
-1.3885498,0.16784668,0.8392334,0.25512695,0.53564453,0.78027344,-0.37646484,-0.13806152,0.18273926,216 
-1.3427734,-0.2593994,1.1444092,0.25390625,0.53637695,0.78125,-0.37646484,-0.13806152,0.18273926,217 
-1.4038086,-1.373291,1.3275146,0.25195312,0.5385742,0.78222656,-0.37280273,-0.13586426,0.17834473,218 
-1.8157959,-1.8615723,1.6326904,0.25,0.54003906,0.7832031,-0.37280273,-0.13586426,0.17834473,219 
-1.8463135,-1.9683838,1.9836426,0.24707031,0.5410156,0.78393555,-0.375,-0.13476562,0.17871094,220 
-1.7852783,-2.3498535,1.953125,0.2446289,0.5419922,0.78466797,-0.375,-0.13476562,0.17871094,221 
-2.9754639,-2.6245117,2.0446777,0.2421875,0.5419922,0.78515625,-0.375,-0.13476562,0.17871094,222 
-2.9144287,-2.4261475,1.739502,0.23925781,0.5419922,0.7858887,-0.37390137,-0.13513184,0.18310547,223 
-3.2043457,-2.746582,1.8463135,0.2368164,0.5432129,0.7858887,-0.37390137,-0.13513184,0.18310547,224 
-3.5095215,-2.0751953,2.0599365,0.23388672,0.5449219,0.78564453,-0.3713379,-0.13806152,0.18676758,225 
-3.6010742,-1.953125,1.7242432,0.23168945,0.54541016,0.78637695,-0.3713379,-0.13806152,0.18676758,226 
-3.4942627,-1.4038086,1.6784668,0.23022461,0.546875,0.7866211,-0.3713379,-0.13806152,0.18676758,227 
-3.250122,-1.0681152,1.6479492,0.22827148,0.5488281,0.7866211,-0.37353516,-0.13513184,0.18493652,228 
-2.7770996,-0.045776367,1.6326904,0.2265625,0.55078125,0.7871094,-0.37353516,-0.13513184,0.18493652,229 
-2.746582,-0.38146973,1.4190674,0.22558594,0.5517578,0.7873535,-0.37243652,-0.13769531,0.18457031,230 
-2.1514893,0.88500977,0.7019043,0.22387695,0.5522461,0.78808594,-0.37243652,-0.13769531,0.18457031,231 
-1.9683838,1.4953613,1.0223389,0.22290039,0.55322266,0.78759766,-0.37243652,-0.13769531,0.18457031,232 
-2.2888184,1.4038086,0.77819824,0.22241211,0.5539551,0.7873535,-0.36987305,-0.14099121,0.17614746,233 
-1.3122559,1.8615723,0.5187988,0.22241211,0.5541992,0.7866211,-0.36987305,-0.14099121,0.17614746,234 
-0.9613037,2.39563,0.39672852,0.22314453,0.55371094,0.78564453,-0.37316895,-0.13842773,0.18164062,235 
-1.5258789,2.7313232,0.091552734,0.22387695,0.5541992,0.78515625,-0.37316895,-0.13842773,0.18164062,236 
-1.2054443,3.0670166,0.10681152,0.22363281,0.5539551,0.7849121,-0.37316895,-0.13842773,0.18164062,237 
-0.9918213,3.4179688,0.015258789,0.2241211,0.5554199,0.78466797,-0.37060547,-0.13916016,0.17797852,238 
-0.9765625,3.540039,-0.10681152,0.22485352,0.55566406,0.7841797,-0.37060547,-0.13916016,0.17797852,239 
-0.5493164,3.753662,-0.18310547,0.22558594,0.5563965,0.7844238,-0.36914062,-0.14099121,0.18786621,240 
-0.9460449,3.7384033,0.015258789,0.22680664,0.5571289,0.78344727,-0.36914062,-0.14099121,0.18786621,241 
-0.77819824,3.6773682,0.16784668,0.2277832,0.5566406,0.78222656,-0.36914062,-0.14099121,0.18786621,242 
-0.5187988,3.6010742,0.061035156,0.22827148,0.5563965,0.78100586,-0.3720703,-0.14025879,0.18017578,243 
-0.4272461,3.4484863,0.12207031,0.22924805,0.5566406,0.77978516,-0.3720703,-0.14025879,0.18017578,244 
-0.091552734,3.753662,0.16784668,0.22924805,0.5571289,0.77978516,-0.37573242,-0.14099121,0.1809082,245 
-0.30517578,4.257202,0.061035156,0.22924805,0.55688477,0.7805176,-0.37573242,-0.14099121,0.1809082,246 
-0.6561279,4.776001,0.091552734,0.23046875,0.5578613,0.7807617,-0.37573242,-0.14099121,0.1809082,247 
-0.15258789,5.493164,-0.289917,0.23071289,0.55737305,0.7805176,-0.36950684,-0.14025879,0.1776123,248 
-0.7171631,6.3171387,-0.5645752,0.23120117,0.55737305,0.78125,-0.36950684,-0.14025879,0.1776123,249 
-0.30517578,6.286621,-0.8087158,0.23120117,0.55737305,0.7824707,-0.37353516,-0.14172363,0.18676758,250 
-0.4119873,6.2713623,-0.6866455,0.23144531,0.5578613,0.78271484,-0.37353516,-0.14172363,0.18676758,251 
0.10681152,5.7373047,-0.9613037,0.2319336,0.55859375,0.78271484,-0.37353516,-0.14172363,0.18676758,252 
0.33569336,5.0964355,-1.373291,0.23266602,0.5583496,0.78393555,-0.36987305,-0.14355469,0.18017578,253 
0.7171631,5.126953,-0.90026855,0.23339844,0.5588379,0.7844238,-0.36987305,-0.14355469,0.18017578,254 
1.3580322,4.333496,-1.2359619,0.23413086,0.5583496,0.7861328,-0.3720703,-0.14135742,0.18603516,255 
2.166748,3.8909912,-1.5563965,0.23535156,0.5571289,0.78808594,-0.3720703,-0.14135742,0.18603516,0 
1.6479492,2.4871826,-1.4953613,0.23583984,0.55566406,0.78881836,-0.3720703,-0.14135742,0.18603516,1 
1.3275146,2.4261475,-1.9378662,0.2355957,0.5529785,0.78808594,-0.3717041,-0.13879395,0.17834473,2 
0.030517578,1.9073486,-2.456665,0.2355957,0.5505371,0.7866211,-0.3717041,-0.13879395,0.17834473,3 
-0.6713867,2.2735596,-2.7160645,0.23461914,0.5493164,0.7844238,-0.37243652,-0.14282227,0.18603516,4 
-0.869751,2.2888184,-2.822876,0.23266602,0.5498047,0.7817383,-0.37243652,-0.14282227,0.18603516,5 
-0.32043457,2.5939941,-3.2806396,0.2319336,0.5517578,0.77905273,-0.37243652,-0.14282227,0.17797852,6 
0.35095215,3.616333,-4.0893555,0.23144531,0.5541992,0.77685547,-0.3687744,-0.14465332,0.17797852,7 
1.4190674,3.4332275,-4.776001,0.23144531,0.55566406,0.77490234,-0.3687744,-0.14465332,0.17797852,8 
1.5258789,3.982544,-5.0964355,0.23217773,0.55615234,0.7739258,-0.37097168,-0.14172363,0.18676758,9 
2.166748,4.425049,-5.6762695,0.23217773,0.55615234,0.77246094,-0.37097168,-0.14172363,0.18676758,10 
2.670288,4.257202,-6.1035156,0.23144531,0.5578613,0.7729492,-0.37097168,-0.14172363,0.18676758,11 
2.6855469,4.3792725,-5.569458,0.23120117,0.56030273,0.77490234,-0.37023926,-0.14172363,0.18200684,12 
3.5552979,3.8909912,-5.3710938,0.23095703,0.56274414,0.7775879,-0.37023926,-0.14172363,0.18200684,13 
4.837036,4.486084,-5.0964355,0.23071289,0.56396484,0.7817383,-0.36914062,-0.13989258,0.18823242,14 
4.8065186,4.0130615,-4.7302246,0.23046875,0.56469727,0.78466797,-0.36914062,-0.13989258,0.18823242,15 
5.3100586,3.8146973,-5.0811768,0.23046875,0.5637207,0.7861328,-0.36914062,-0.13989258,0.18823242,16 
5.569458,4.6081543,-4.562378,0.22998047,0.56152344,0.7871094,-0.36914062,-0.13842773,0.17944336,17 
5.630493,4.501343,-4.562378,0.22802734,0.5588379,0.78564453,-0.36914062,-0.13842773,0.17944336,18 
5.7373047,5.4626465,-4.8828125,0.22607422,0.5566406,0.78466797,-0.37280273,-0.13769531,0.18273926,19 
6.92749,6.225586,-4.8980713,0.2253418,0.55493164,0.78344727,-0.37280273,-0.13769531,0.18273926,20 
7.4005127,6.958008,-5.0354004,0.2265625,0.5517578,0.78344727,-0.37280273,-0.13842773,0.18017578,21 
8.270264,7.247925,-5.584717,0.2277832,0.5488281,0.7844238,-0.37060547,-0.13842773,0.18017578,22 
6.942749,6.942749,-5.874634,0.2290039,0.545166,0.7849121,-0.37060547,-0.13842773,0.18017578,23 
6.0577393,6.6070557,-6.0424805,0.22973633,0.54248047,0.7841797,-0.3717041,-0.13842773,0.18310547,24 
4.623413,6.2713623,-6.0577393,0.23095703,0.5427246,0.782959,-0.3717041,-0.13842773,0.18310547,25 
4.348755,5.9661865,-5.9509277,0.23144531,0.5437012,0.7807617,-0.3717041,-0.13842773,0.18273926,26 
3.9672852,6.210327,-5.4779053,0.23144531,0.54541016,0.77856445,-0.3687744,-0.13952637,0.18273926,27 
4.2877197,6.149292,-5.4016113,0.23242188,0.54711914,0.77734375,-0.3687744,-0.13952637,0.18273926,28 
4.8675537,7.461548,-5.2490234,0.23266602,0.548584,0.77685547,-0.37353516,-0.1373291,0.18493652,29 
5.004883,7.385254,-5.4779053,0.23339844,0.5488281,0.7763672,-0.37353516,-0.1373291,0.18493652,30 
5.3100586,7.461548,-5.3863525,0.234375,0.54907227,0.7763672,-0.37353516,-0.1373291,0.1776123,31 
5.7373047,8.239746,-5.3100586,0.23535156,0.5473633,0.7766113,-0.36987305,-0.13623047,0.1776123,32 
5.706787,8.621216,-5.645752,0.2355957,0.545166,0.77734375,-0.36987305,-0.13623047,0.1776123,33 
5.508423,8.590698,-5.6152344,0.23657227,0.5437012,0.77783203,-0.37280273,-0.13806152,0.18310547,34 
5.3710938,9.017944,-5.264282,0.23754883,0.54248047,0.77856445,-0.37280273,-0.13806152,0.18310547,35 
5.584717,9.20105,-4.91333,0.23901367,0.54125977,0.7800293,-0.37280273,-0.13659668,0.18200684,36 
5.79834,9.399414,-4.79126,0.24121094,0.5397949,0.7832031,-0.3687744,-0.13659668,0.18200684,37 
5.6762695,9.155273,-4.837036,0.24243164,0.53881836,0.78515625,-0.3687744,-0.13659668,0.18200684,38 
5.9814453,9.017944,-4.5166016,0.24389648,0.53808594,0.78637695,-0.37280273,-0.13659668,0.18640137,39 
6.515503,8.895874,-4.4403076,0.24536133,0.5383301,0.78686523,-0.37280273,-0.13659668,0.18640137,40 
7.598877,9.613037,-3.692627,0.24609375,0.5378418,0.78686523,-0.37280273,-0.13952637,0.18164062,41 
8.407593,10.559082,-3.4179688,0.24536133,0.5383301,0.7890625,-0.3720703,-0.13952637,0.18164062,42 
8.43811,11.901855,-3.463745,0.24584961,0.5385742,0.7922363,-0.3720703,-0.13952637,0.18164062,43 
5.508423,16.952515,-4.638672,0.24658203,0.5498047,0.8005371,-0.37390137,-0.13439941,0.18859863,44 
-6.668091,27.999878,-2.4719238,0.24633789,0.58447266,0.82006836,-0.37390137,-0.13439941,0.18859863,45 
3.6773682,25.268555,-0.015258789,0.24682617,0.61279297,0.84155273,-0.37390137,-0.13439941,0.18200684,46 
2.7618408,32.730103,-8.804321,0.2409668,0.6113281,0.8613281,-0.37097168,-0.13439941,0.18200684,47 
10.238647,34.729004,-13.336182,0.24414062,0.5793457,0.8659668,-0.37097168,-0.13439941,0.18200684,48 
17.578125,26.489258,-14.465332,0.25,0.5415039,0.8520508,-0.37756348,-0.13513184,0.18127441,49 
16.418457,25.970459,-11.001587,0.23950195,0.5124512,0.8000488,-0.37902832,-0.1307373,0.18164062,51 
22.567749,25.131226,-6.8206787,0.25610352,0.51171875,0.74243164,-0.3812256,-0.12817383,0.18640137,54 
23.925781,21.92688,-5.1574707,0.27319336,0.51171875,0.7421875,-0.3812256,-0.12817383,0.18640137,55 
22.750854,16.38794,-7.6904297,0.28955078,0.50439453,0.75146484,-0.3815918,-0.12780762,0.18127441,56 
20.904541,10.253906,-2.822876,0.3010254,0.49072266,0.7626953,-0.3815918,-0.12780762,0.18127441,57 
16.00647,4.8675537,-1.6326904,0.30493164,0.47998047,0.77001953,-0.3815918,-0.12780762,0.18127441,58 
13.504028,0.7324219,-0.35095215,0.30273438,0.4777832,0.7727051,-0.38232422,-0.12854004,0.18530273,59 
8.911133,-0.289917,-0.15258789,0.3010254,0.47998047,0.76953125,-0.38232422,-0.12854004,0.18530273,60 
8.010864,-4.0130615,0.74768066,0.30126953,0.48168945,0.767334,-0.3812256,-0.12817383,0.18566895,61 
8.392334,-7.736206,2.746582,0.30029297,0.48339844,0.7636719,-0.3812256,-0.12817383,0.18566895,62 
7.0343018,-11.245728,4.272461,0.29614258,0.47924805,0.7631836,-0.3812256,-0.12817383,0.18566895,63 
4.4403076,-14.511108,4.8828125,0.29174805,0.47314453,0.76464844,-0.3852539,-0.12597656,0.18786621,64 
-0.88500977,-16.326904,5.5389404,0.2890625,0.48266602,0.77075195,-0.37646484,-0.12451172,0.18054199,66 
-3.6010742,-17.532349,5.1727295,0.28955078,0.4921875,0.7770996,-0.37646484,-0.12451172,0.18054199,67 
-7.232666,-20.401001,3.5247803,0.28442383,0.5097656,0.79248047,-0.3779297,-0.12927246,0.18676758,69 
-8.010864,-20.126343,1.9226074,0.2775879,0.5185547,0.798584,-0.3779297,-0.12927246,0.18676758,70 
-9.20105,-19.699097,0.76293945,0.26879883,0.52563477,0.80493164,-0.37280273,-0.12524414,0.18273926,71 
-8.895874,-17.974854,-1.2817383,0.25952148,0.53271484,0.8095703,-0.37280273,-0.12524414,0.18273926,72 
-9.506226,-16.189575,-2.5787354,0.25170898,0.5383301,0.81152344,-0.37280273,-0.12524414,0.18273926,73 
-8.651733,-13.85498,-2.7618408,0.24389648,0.54125977,0.8093262,-0.3746338,-0.1274414,0.18054199,74 
-7.659912,-10.604858,-3.7078857,0.23486328,0.5439453,0.80688477,-0.3746338,-0.1274414,0.18054199,75 
-6.652832,-6.80542,-4.8217773,0.22875977,0.54663086,0.8034668,-0.3717041,-0.13146973,0.18017578,76 
-4.776001,-4.470825,-6.9122314,0.22631836,0.5456543,0.7980957,-0.3717041,-0.13146973,0.18017578,77 
-2.8686523,-1.8920898,-7.4768066,0.22387695,0.5427246,0.7949219,-0.3717041,-0.13146973,0.18017578,78 
-1.3122559,0.76293945,-8.81958,0.2199707,0.54174805,0.7919922,-0.37280273,-0.12817383,0.17980957,79 
0.35095215,3.7841797,-9.887695,0.21899414,0.5439453,0.79125977,-0.37280273,-0.12817383,0.17980957,80 
2.5024414,6.1950684,-11.09314,0.22192383,0.5461426,0.7907715,-0.36767578,-0.1270752,0.17907715,81 
4.425049,7.7056885,-11.856079,0.22558594,0.5476074,0.79052734,-0.36767578,-0.1270752,0.17907715,82 
6.9732666,8.346558,-12.283325,0.23022461,0.54833984,0.7902832,-0.36767578,-0.1270752,0.17907715,83 
8.300781,10.192871,-11.627197,0.23413086,0.5461426,0.7902832,-0.3720703,-0.1303711,0.1776123,84 
9.750366,10.406494,-11.367798,0.23779297,0.54296875,0.7910156,-0.3720703,-0.1303711,0.1776123,85 
10.559082,7.9040527,-11.459351,0.23999023,0.5366211,0.79052734,-0.36914062,-0.12854004,0.17687988,86 
9.674072,12.420654,-11.459351,0.24145508,0.52978516,0.7919922,-0.36914062,-0.12854004,0.17687988,87 
8.285522,13.442993,-12.756348,0.2421875,0.52246094,0.7939453,-0.36914062,-0.12854004,0.17687988,88 
5.6610107,15.151978,-13.839722,0.24121094,0.51904297,0.8005371,-0.37390137,-0.12634277,0.1776123,89 
4.135132,18.508911,-11.978149,0.24023438,0.5227051,0.81274414,-0.37390137,-0.12634277,0.1776123,90 
2.9144287,26.947021,-18.844604,0.23608398,0.5419922,0.8364258,-0.3720703,-0.1237793,0.18237305,91 
-0.030517578,39.611816,-21.240234,0.23486328,0.5703125,0.8640137,-0.3720703,-0.1237793,0.18237305,92 
8.178711,39.871216,-22.369385,0.23925781,0.57177734,0.8737793,-0.3720703,-0.1237793,0.18237305,93 
12.4053955,41.305542,-27.664185,0.23632812,0.5637207,0.87719727,-0.37756348,-0.12158203,0.17871094,94 
11.962891,45.97473,-30.578613,0.23510742,0.57714844,0.8708496,-0.37756348,-0.12158203,0.17871094,95 
17.929077,51.223755,-30.212402,0.23876953,0.60717773,0.859375,-0.37609863,-0.12231445,0.1809082,96 
23.895264,56.396484,-32.409668,0.2524414,0.62597656,0.8508301,-0.37609863,-0.12231445,0.1809082,97 
40.618896,49.942017,-37.03308,0.2705078,0.62231445,0.8383789,-0.37609863,-0.12231445,0.1809082,98 
53.68042,45.669556,-39.398193,0.27124023,0.5998535,0.8222656,-0.38378906,-0.119018555,0.18530273,99 
61.431885,49.27063,-38.55896,0.25854492,0.5788574,0.80078125,-0.38378906,-0.119018555,0.18530273,100 
63.720703,51.02539,-33.569336,0.25439453,0.54785156,0.7734375,-0.38671875,-0.11352539,0.18786621,101 
62.63733,50.53711,-28.076172,0.25585938,0.5124512,0.74780273,-0.38671875,-0.11352539,0.18786621,102 
62.545776,50.76599,-24.398804,0.2602539,0.47875977,0.7258301,-0.38671875,-0.11352539,0.18786621,103 
58.135986,48.8739,-21.713257,0.27246094,0.44482422,0.7097168,-0.38964844,-0.10913086,0.18933105,104 
50.735474,47.714233,-18.78357,0.29125977,0.41088867,0.70166016,-0.38964844,-0.10913086,0.18933105,105 
45.181274,44.540405,-15.518188,0.3137207,0.38452148,0.70410156,-0.3918457,-0.103637695,0.19372559,106 
37.475586,41.275024,-13.641357,0.33935547,0.3647461,0.7109375,-0.3918457,-0.103637695,0.19372559,107 
29.327393,37.124634,-13.73291,0.36132812,0.34838867,0.720459,-0.3918457,-0.103637695,0.19372559,108 
20.843506,31.341553,-13.549805,0.38061523,0.33496094,0.73461914,-0.39587402,-0.10437012,0.19189453,109 
13.442993,26.245117,-12.924194,0.39575195,0.32641602,0.74780273,-0.39587402,-0.10437012,0.19189453,110 
8.026123,23.330688,-11.444092,0.40625,0.32421875,0.7578125,-0.39587402,-0.09814453,0.19335938,111 
3.3721924,13.458252,-10.055542,0.41259766,0.3256836,0.7644043,-0.39587402,-0.09814453,0.19335938,112 
-0.16784668,6.454468,-9.384155,0.41430664,0.32958984,0.767334,-0.39587402,-0.09814453,0.19335938,113 
-4.5776367,0.88500977,-8.377075,0.41137695,0.3215332,0.7624512,-0.39770508,-0.099243164,0.18896484,114 
-13.198853,-4.8980713,-7.8582764,0.4038086,0.29736328,0.751709,-0.39770508,-0.099243164,0.18896484,115 
-25.024414,-10.925293,-3.1433105,0.39746094,0.27270508,0.751709,-0.3951416,-0.10217285,0.19189453,116 
-37.872314,-17.730713,3.3569336,0.4013672,0.26733398,0.7631836,-0.3951416,-0.10217285,0.19189453,117 
-48.721313,-27.252197,8.300781,0.41308594,0.28857422,0.78344727,-0.3951416,-0.10217285,0.19189453,118 
-59.158325,-36.758423,11.33728,0.42529297,0.3251953,0.8083496,-0.39404297,-0.103271484,0.19262695,119 
-67.18445,-46.340942,14.312744,0.43432617,0.37036133,0.83374023,-0.39404297,-0.103271484,0.19262695,120 
-73.776245,-52.459717,14.99939,0.4362793,0.41918945,0.8466797,-0.38891602,-0.107666016,0.19372559,121 
-75.927734,-57.96814,14.633179,0.4272461,0.45043945,0.8483887,-0.38891602,-0.107666016,0.19372559,122 
-82.214355,-57.403564,12.34436,0.40063477,0.4597168,0.8269043,-0.38891602,-0.107666016,0.19372559,123 
-85.28137,-51.834106,9.475708,0.34887695,0.43969727,0.79296875,-0.38598633,-0.1138916,0.18713379,124 
-58.99048,-35.507202,9.597778,0.2956543,0.4506836,0.76000977,-0.38598633,-0.1138916,0.18713379,125 
-15.655518,-15.457153,14.892578,0.26220703,0.5437012,0.7355957,-0.38085938,-0.119384766,0.18713379,126 
31.768799,1.1901855,16.00647,0.2631836,0.6850586,0.7126465,-0.38085938,-0.119384766,0.18713379,127 
81.14624,12.10022,10.818481,0.28271484,0.80981445,0.703125,-0.38085938,-0.119384766,0.18713379,128 
130.50842,19.714355,5.355835,0.29638672,0.8718262,0.70532227,-0.3848877,-0.11755371,0.18603516,129 
194.06128,36.972046,-4.928589,0.29125977,0.86816406,0.7001953,-0.3848877,-0.11755371,0.18603516,130 
252.22778,46.37146,-11.154175,0.28564453,0.8652344,0.68310547,-0.38452148,-0.103271484,0.18676758,131 
295.41016,53.03955,-12.619019,0.27905273,0.68774414,0.7080078,-0.38452148,-0.103271484,0.18676758,132 
306.96106,35.27832,-17.669678,0.28881836,0.56811523,0.7763672,-0.38452148,-0.103271484,0.18676758,133 
303.5431,29.876709,-16.281128,0.29370117,0.5119629,0.86572266,-0.3881836,-0.08569336,0.18896484,134 
302.26135,36.621094,-9.567261,0.29248047,0.5202637,0.9016113,-0.3881836,-0.08569336,0.18896484,135 
283.6609,42.114258,-4.7454834,0.2932129,0.49414062,0.90478516,-0.38964844,-0.06298828,0.19226074,136 
246.71936,42.129517,-5.279541,0.29052734,0.38378906,0.92456055,-0.38964844,-0.06298828,0.19226074,137 
213.88245,52.978516,-4.348755,0.2692871,0.25952148,0.95166016,-0.38964844,-0.06298828,0.19226074,138 
187.02698,64.89563,-0.015258789,0.25341797,0.17749023,0.95532227,-0.38708496,-0.042114258,0.19482422,139 
167.52625,75.33264,1.3580322,0.25927734,0.14819336,0.9448242,-0.38708496,-0.042114258,0.19482422,140 
145.4773,79.04053,0.5950928,0.28149414,0.12011719,0.921875,-0.39331055,-0.029663086,0.2043457,141 
126.815796,82.58057,-4.6691895,0.29711914,0.09399414,0.8947754,-0.39331055,-0.029663086,0.2043457,142 
120.36133,87.768555,-13.22937,0.30151367,0.099365234,0.8623047,-0.39331055,-0.029663086,0.2043457,143 
115.478516,94.22302,-21.224976,0.31323242,0.12060547,0.8486328,-0.39624023,-0.024169922,0.20617676,144 
110.13794,94.192505,-29.708862,0.33911133,0.12866211,0.83691406,-0.39624023,-0.024169922,0.20617676,145 
104.644775,91.69006,-34.13391,0.35375977,0.12109375,0.82836914,-0.40356445,-0.013916016,0.20947266,146 
83.64868,94.070435,-32.089233,0.36279297,0.07763672,0.83984375,-0.40356445,-0.013916016,0.20947266,147 
65.5365,89.263916,-28.366089,0.38330078,0.046875,0.86572266,-0.40356445,-0.013916016,0.20947266,148 
65.44495,83.984375,-25.146484,0.4038086,0.09106445,0.89331055,-0.40686035,-0.0087890625,0.21826172,149 
73.30322,72.47925,-25.024414,0.43530273,0.1730957,0.8996582,-0.40686035,-0.0087890625,0.21826172,150 
84.47266,58.22754,-26.153564,0.4675293,0.20776367,0.9157715,-0.4083252,0.0010986328,0.22485352,151 
90.49988,48.24829,-22.918701,0.4724121,0.18652344,0.93115234,-0.4083252,0.0010986328,0.22485352,152 
97.90039,43.21289,-19.40918,0.46313477,0.17456055,0.923584,-0.4083252,0.0010986328,0.22485352,153 
99.62463,43.99109,-19.683838,0.4567871,0.17358398,0.9145508,-0.40979004,0.006591797,0.22338867,154 
95.26062,44.72351,-16.37268,0.45336914,0.12768555,0.9133301,-0.40979004,0.006591797,0.22338867,155 
89.20288,44.403076,-14.9383545,0.44506836,0.07348633,0.89868164,-0.41271973,0.015380859,0.234375,156 
84.42688,44.8761,-13.092041,0.43823242,0.05102539,0.8708496,-0.41271973,0.015380859,0.234375,157 
82.94678,44.143677,-13.824463,0.44140625,0.05908203,0.8540039,-0.41271973,0.015380859,0.234375,158 
83.465576,43.289185,-11.856079,0.45361328,0.061767578,0.8510742,-0.41271973,0.017211914,0.23876953,159 
88.36365,39.07776,-12.435913,0.4609375,0.07055664,0.8520508,-0.41271973,0.017211914,0.23876953,160 
90.62195,38.223267,-10.864258,0.46118164,0.07470703,0.8527832,-0.41711426,0.02746582,0.2446289,161 
95.7489,36.987305,-9.94873,0.46728516,0.08276367,0.85498047,-0.41711426,0.02746582,0.2446289,162 
106.155396,33.416748,-11.672974,0.47485352,0.09741211,0.85131836,-0.41711426,0.02746582,0.2446289,163 
110.53467,33.38623,-9.872437,0.48217773,0.09423828,0.8642578,-0.41674805,0.03515625,0.24682617,164 
115.95154,32.51648,-8.926392,0.48486328,0.08569336,0.876709,-0.41674805,0.03515625,0.24682617,165 
123.90137,36.071777,-10.467529,0.484375,0.091796875,0.88061523,-0.4182129,0.038085938,0.2515869,166 
129.2572,36.819458,-14.556885,0.49047852,0.07885742,0.86743164,-0.4182129,0.038085938,0.2515869,167 
130.93567,43.21289,-12.664795,0.48217773,0.045654297,0.8532715,-0.4182129,0.038085938,0.2515869,168 
129.0741,52.322388,-11.047363,0.47436523,0.011230469,0.845459,-0.41711426,0.044311523,0.25927734,169 
123.794556,60.897827,-3.463745,0.4716797,-0.027832031,0.83618164,-0.41711426,0.044311523,0.25927734,170 
117.874146,69.03076,2.029419,0.47705078,-0.060791016,0.8300781,-0.41674805,0.052001953,0.26879883,171 
116.363525,73.45581,6.149292,0.4885254,-0.072021484,0.8388672,-0.41674805,0.052001953,0.26879883,172 
121.87195,80.01709,14.6484375,0.49829102,-0.047851562,0.8601074,-0.41674805,0.052001953,0.26879883,173 
129.36401,89.263916,24.841309,0.5136719,-0.016113281,0.88549805,-0.421875,0.056762695,0.27172852,174 
136.1084,96.23718,27.496338,0.532959,-0.018798828,0.9030762,-0.421875,0.056762695,0.27172852,175 
133.34656,102.996826,34.683228,0.5461426,-0.06616211,0.8977051,-0.42736816,0.0637207,0.29187012,176 
116.08887,106.88782,47.225952,0.5488281,-0.14770508,0.86572266,-0.42736816,0.0637207,0.29187012,177 
83.221436,109.8938,57.69348,0.54833984,-0.22143555,0.81640625,-0.42736816,0.0637207,0.29187012,178 
35.354614,117.14172,62.057495,0.5449219,-0.26245117,0.7836914,-0.43469238,0.06335449,0.29406738,179 
-7.537842,130.76782,58.120728,0.54589844,-0.2998047,0.78393555,-0.43469238,0.06335449,0.29406738,180 
-59.020996,136.70349,51.68152,0.56030273,-0.37719727,0.7844238,-0.4420166,0.059326172,0.3079834,181 
-126.72424,136.52039,33.355713,0.564209,-0.4868164,0.7800293,-0.4420166,0.059326172,0.3079834,182 
-211.44104,129.47083,17.471313,0.546875,-0.6225586,0.7661133,-0.4420166,0.059326172,0.3079834,183 
-270.72144,103.28674,-4.8828125,0.51000977,-0.65893555,0.74438477,-0.44641113,0.052734375,0.30541992,184 
-310.0891,89.47754,-24.398804,0.46655273,-0.5463867,0.7314453,-0.44641113,0.052734375,0.30541992,185 
-361.7401,69.747925,-50.735474,0.49487305,-0.41992188,0.73876953,-0.45410156,0.03955078,0.29553223,186 
-418.33496,49.78943,-78.15552,0.55322266,-0.32666016,0.7729492,-0.45410156,0.03955078,0.29553223,187 
-470.87097,39.68811,-100.15869,0.5917969,-0.28125,0.8100586,-0.45410156,0.03955078,0.29553223,188 
-500.0,18.90564,-118.499756,0.6052246,-0.30004883,0.82470703,-0.4522705,0.026367188,0.28051758,189 
-500.0,12.863159,-126.37329,0.58496094,-0.31176758,0.80688477,-0.4522705,0.026367188,0.28051758,190 
-500.0,11.306763,-131.16455,0.5722656,-0.18798828,0.7836914,-0.45446777,-0.0007324219,0.26367188,191 
-500.0,64.68201,-110.961914,0.6040039,0.09692383,0.7878418,-0.45446777,-0.0007324219,0.26367188,192 
-419.00635,67.337036,-82.229614,0.7133789,0.30786133,0.77685547,-0.45446777,-0.0007324219,0.26367188,193 
-302.4292,38.17749,-69.67163,0.8029785,0.43310547,0.7531738,-0.4519043,-0.020874023,0.25708008,194 
-221.20667,15.823364,-54.93164,0.80688477,0.47680664,0.70996094,-0.4519043,-0.020874023,0.25708008,195 
-166.04614,10.101318,-47.805786,0.7624512,0.46142578,0.6652832,-0.4588623,-0.030761719,0.2545166,196 
-158.844,-2.6397705,-47.729492,0.7224121,0.41064453,0.64086914,-0.4588623,-0.030761719,0.2545166,197 
-162.23145,-3.1280518,-49.9115,0.6784668,0.33422852,0.6455078,-0.4588623,-0.030761719,0.25012207,198 
-165.43579,-0.47302246,-44.99817,0.6425781,0.27978516,0.6320801,-0.4522705,-0.040283203,0.25012207,199 
-166.3971,3.7994385,-45.028687,0.62402344,0.26220703,0.60961914,-0.4522705,-0.040283203,0.25012207,200 
-162.09412,5.5389404,-44.692993,0.6176758,0.25634766,0.57910156,-0.4519043,-0.045776367,0.2479248,201 
-158.56934,1.4953613,-45.25757,0.60961914,0.24438477,0.5419922,-0.4519043,-0.045776367,0.2479248,202 
-152.08435,0.6713867,-47.836304,0.6081543,0.23583984,0.5185547,-0.4519043,-0.045776367,0.2479248,203 
-153.86963,-2.9144287,-50.29297,0.6184082,0.22583008,0.515625,-0.45117188,-0.051635742,0.2475586,204 
-157.15027,-6.286621,-51.712036,0.6335449,0.22485352,0.52685547,-0.45117188,-0.051635742,0.2475586,205 
-149.15466,-7.4920654,-47.48535,0.6459961,0.24682617,0.52783203,-0.45080566,-0.05895996,0.24169922,206 
-130.8136,-4.257202,-44.692993,0.6479492,0.27514648,0.56152344,-0.45080566,-0.05895996,0.24169922,207 
-110.3363,-1.953125,-42.144775,0.6542969,0.29638672,0.4580078,-0.45080566,-0.05895996,0.24169922,208 
-86.95984,-3.5858154,-38.19275,0.66918945,0.31640625,0.42919922,-0.4482422,-0.06555176,0.24206543,209 
-70.55664,-10.360718,-33.859253,0.6862793,0.32006836,0.42504883,-0.4482422,-0.06555176,0.24206543,210 
-58.914185,-10.71167,-27.48108,0.6933594,0.3166504,0.44311523,-0.4519043,-0.06774902,0.23913574,211 
-49.27063,-6.210327,-23.132324,0.7495117,0.32080078,0.45361328,-0.4519043,-0.06774902,0.23913574,212 
-39.81018,-6.164551,-19.77539,0.68969727,0.3215332,0.45776367,-0.4519043,-0.06774902,0.23327637,213 
-31.066895,-3.9215088,-16.494751,0.69433594,0.3190918,0.4741211,-0.44677734,-0.06921387,0.23327637,214 
-22.918701,-1.3427734,-10.314941,0.6972656,0.31079102,0.49658203,-0.44677734,-0.06921387,0.23327637,215 
-17.456055,-0.9460449,-4.8065186,0.70825195,0.30322266,0.5168457,-0.44934082,-0.072509766,0.2376709,216 
-16.036987,-1.5258789,1.0070801,0.71655273,0.2956543,0.53930664,-0.44934082,-0.072509766,0.2376709,217 
-18.722534,-1.4190674,4.928589,0.71777344,0.28222656,0.55981445,-0.44934082,-0.072509766,0.2376709,218 
-22.445679,1.9683838,8.682251,0.71777344,0.27246094,0.56884766,-0.44604492,-0.0736084,0.24060059,219 
-21.957397,3.8909912,11.764526,0.7207031,0.28881836,0.57006836,-0.44604492,-0.0736084,0.24060059,220 
-13.122559,3.7078857,16.235352,0.7246094,0.31884766,0.5769043,-0.44970703,-0.07104492,0.24499512,221 
-6.4086914,1.7242432,18.38684,0.7297363,0.3383789,0.5859375,-0.44970703,-0.07104492,0.24499512,222 
-5.630493,0.93078613,21.04187,0.72558594,0.33520508,0.58984375,-0.44970703,-0.07104492,0.23876953,223 
-1.739502,1.5716553,25.558472,0.71655273,0.3322754,0.5961914,-0.44677734,-0.07507324,0.23876953,224 
3.9367676,6.149292,28.656006,0.70996094,0.33569336,0.5812988,-0.44677734,-0.07507324,0.23876953,225 
7.7667236,4.257202,31.25,0.7109375,0.34423828,0.56396484,-0.4522705,-0.07836914,0.24206543,226 
16.174316,0.2593994,33.737183,0.7084961,0.37036133,0.5617676,-0.4522705,-0.07836914,0.24206543,227 
26.33667,-1.9836426,36.849976,0.7001953,0.3876953,0.57006836,-0.4522705,-0.07910156,0.2376709,228 
24.765015,-1.7700195,38.95569,0.6940918,0.38842773,0.57177734,-0.4482422,-0.07910156,0.2376709,229 
23.727417,-2.9754639,42.251587,0.6940918,0.38256836,0.5720215,-0.4482422,-0.07910156,0.2376709,230 
23.361206,-5.5236816,45.043945,0.6933594,0.3737793,0.5739746,-0.4522705,-0.076538086,0.24060059,231 
20.950317,-7.3394775,47.164917,0.69506836,0.3713379,0.5727539,-0.4522705,-0.076538086,0.24060059,232 
23.468018,-8.972168,50.369263,0.6923828,0.38305664,0.5690918,-0.4522705,-0.076538086,0.23950195,233 
30.349731,-10.604858,50.827026,0.685791,0.3955078,0.57128906,-0.44604492,-0.08093262,0.23950195,234 
37.42981,-11.749268,51.956177,0.67749023,0.39794922,0.5732422,-0.44604492,-0.08093262,0.23950195,235 
41.5802,-13.366699,52.4292,0.671875,0.39453125,0.57543945,-0.44934082,-0.08312988,0.2376709,236 
41.610718,-14.862061,54.840088,0.67089844,0.38110352,0.58813477,-0.44934082,-0.08312988,0.2376709,237 
38.68103,-16.76941,56.33545,0.6687012,0.36938477,0.6062012,-0.44934082,-0.08312988,0.234375,238 
28.381348,-17.25769,56.991577,0.657959,0.3605957,0.6203613,-0.4482422,-0.08532715,0.234375,239 
25.131226,-17.486572,55.17578,0.64746094,0.3605957,0.63378906,-0.4482422,-0.08532715,0.234375,240 
23.391724,-17.669678,53.237915,0.6357422,0.35131836,0.6538086,-0.4515381,-0.08312988,0.24133301,241 
19.088745,-15.396118,51.376343,0.6257324,0.34570312,0.6621094,-0.4515381,-0.08312988,0.24133301,242 
13.99231,-16.418457,50.52185,0.626709,0.34228516,0.6635742,-0.4515381,-0.083862305,0.23144531,243 
8.956909,-16.296387,50.964355,0.62841797,0.33666992,0.6599121,-0.44677734,-0.083862305,0.23144531,244 
2.9754639,-16.159058,51.116943,0.6274414,0.33496094,0.6533203,-0.44677734,-0.083862305,0.23144531,245 
-4.1046143,-15.899658,51.452637,0.6225586,0.32885742,0.64941406,-0.44750977,-0.087524414,0.22961426,246 
-9.841919,-14.099121,51.101685,0.61279297,0.32836914,0.6484375,-0.44750977,-0.087524414,0.22961426,247 
-14.465332,-14.633179,50.064087,0.6123047,0.3269043,0.6472168,-0.44750977,-0.091918945,0.23730469,248 
-20.614624,-14.663696,50.01831,0.609375,0.3239746,0.6525879,-0.44641113,-0.091918945,0.23730469,249 
-27.389526,-12.10022,48.62976,0.60253906,0.3330078,0.66259766,-0.44641113,-0.091918945,0.23730469,250 
-31.600952,-11.795044,45.639038,0.59643555,0.3527832,0.66845703,-0.45080566,-0.09741211,0.23364258,251 
-33.966064,-9.521484,43.670654,0.58935547,0.37109375,0.6743164,-0.45080566,-0.09741211,0.23364258,252 
-37.15515,-9.490967,41.275024,0.58935547,0.3942871,0.6767578,-0.45080566,-0.099243164,0.2310791,253 
-36.92627,-8.377075,40.359497,0.5925293,0.4255371,0.6748047,-0.4453125,-0.099243164,0.2310791,254 
-38.360596,-8.743286,39.978027,0.59106445,0.45507812,0.66137695,-0.4453125,-0.099243164,0.2310791,255 
-38.66577,-9.979248,40.06958,0.5878906,0.47851562,0.6447754,-0.44787598,-0.10620117,0.23620605,0 
-34.439087,-11.459351,39.520264,0.58032227,0.4819336,0.63500977,-0.44787598,-0.10620117,0.23620605,1 
-35.67505,-9.887695,40.145874,0.5683594,0.47802734,0.63061523,-0.4453125,-0.10876465,0.234375,2 
-35.736084,-8.43811,36.193848,0.5539551,0.48657227,0.6286621,-0.4453125,-0.10876465,0.234375,3 
-35.995483,-8.2092285,33.615112,0.5456543,0.48779297,0.6296387,-0.4453125,-0.10876465,0.234375,4 
-32.669067,-6.3476562,30.548096,0.5395508,0.5012207,0.62768555,-0.44714355,-0.11279297,0.23510742,5 
-22.29309,-3.616333,28.4729,0.5354004,0.5344238,0.61816406,-0.44714355,-0.11279297,0.23510742,6 
-9.414673,-3.5705566,27.420044,0.5415039,0.56225586,0.6020508,-0.44384766,-0.115722656,0.23071289,7 
2.3345947,-6.088257,27.008057,0.5498047,0.5822754,0.5905762,-0.44384766,-0.115722656,0.23071289,8 
8.117676,-6.3476562,26.489258,0.54785156,0.5817871,0.5871582,-0.44384766,-0.115722656,0.23071289,9 
10.025024,-6.210327,27.22168,0.54833984,0.5690918,0.5878906,-0.44384766,-0.115356445,0.22961426,10 
12.084961,-6.3171387,25.726318,0.5432129,0.5517578,0.59228516,-0.44384766,-0.115356445,0.22961426,11 
9.750366,-7.3547363,23.025513,0.5415039,0.52368164,0.6064453,-0.44384766,-0.12231445,0.22741699,12 
7.095337,-5.645752,21.118164,0.53808594,0.5058594,0.6286621,-0.44384766,-0.12231445,0.22741699,13 
10.635376,-2.822876,18.676758,0.5378418,0.513916,0.6381836,-0.44384766,-0.12231445,0.22741699,14 
16.113281,-3.2348633,15.380859,0.54003906,0.5246582,0.6447754,-0.4453125,-0.118652344,0.23034668,15 
20.431519,-2.8839111,14.465332,0.53759766,0.52783203,0.6447754,-0.4453125,-0.118652344,0.23034668,16 
20.141602,-4.1656494,11.749268,0.54174805,0.51904297,0.6489258,-0.44458008,-0.118652344,0.2277832,17 
17.044067,-3.326416,11.154175,0.5461426,0.50634766,0.6608887,-0.44458008,-0.118652344,0.2277832,18 
14.3585205,-1.9989014,11.0321045,0.5505371,0.49975586,0.6657715,-0.44458008,-0.118652344,0.2277832,19 
11.734009,-1.4343262,10.910034,0.5566406,0.48999023,0.66381836,-0.4453125,-0.11755371,0.2244873,20 
10.803223,-2.4719238,10.879517,0.5629883,0.48095703,0.66137695,-0.4453125,-0.11755371,0.2244873,21 
10.543823,-2.4414062,10.177612,0.56274414,0.4711914,0.6616211,-0.4420166,-0.11791992,0.22265625,22 
9.262085,-3.0059814,7.797241,0.55810547,0.46313477,0.66674805,-0.4420166,-0.11791992,0.22265625,23 
5.722046,-3.2043457,5.4779053,0.55493164,0.45874023,0.6713867,-0.4420166,-0.11791992,0.22265625,24 
3.4942627,-3.0059814,4.0893555,0.5517578,0.46362305,0.6809082,-0.4416504,-0.11645508,0.22741699,25 
1.2817383,-4.196167,3.6010742,0.5551758,0.47460938,0.6904297,-0.4416504,-0.11645508,0.22741699,26 
-2.4108887,-4.989624,3.90625,0.55908203,0.48461914,0.7077637,-0.44055176,-0.11791992,0.22558594,27 
-4.8828125,-6.362915,4.79126,0.56518555,0.4892578,0.71606445,-0.44055176,-0.11791992,0.22558594,28 
-7.7056885,-6.4697266,3.4942627,0.57250977,0.48510742,0.72631836,-0.44055176,-0.11791992,0.22558594,29 
-12.72583,-5.0201416,4.3945312,0.5678711,0.4819336,0.7277832,-0.44128418,-0.118652344,0.2241211,30 
-12.634277,-4.3945312,2.380371,0.5617676,0.48999023,0.7207031,-0.44128418,-0.118652344,0.2241211,31 
-12.832642,-1.9073486,1.4953613,0.5505371,0.49194336,0.71069336,-0.43798828,-0.118652344,0.2241211,32 
-14.007568,1.7547607,-0.6866455,0.53344727,0.49365234,0.6994629,-0.43798828,-0.118652344,0.2241211,33 
-18.432617,3.0822754,-4.2419434,0.517334,0.4753418,0.6899414,-0.43798828,-0.118652344,0.2241211,34 
-28.97644,8.361816,-9.033203,0.48608398,0.44482422,0.6862793,-0.4390869,-0.11828613,0.22595215,35 
-46.50879,11.703491,-14.205933,0.46411133,0.4189453,0.6838379,-0.4390869,-0.11828613,0.22595215,36 
-60.531616,15.12146,-18.692017,0.4567871,0.4116211,0.6765137,-0.43981934,-0.12414551,0.22631836,37 
-67.474365,17.654419,-23.605347,0.45214844,0.4284668,0.66381836,-0.43981934,-0.12414551,0.22631836,38 
-63.90381,20.980835,-27.908325,0.44848633,0.46240234,0.6401367,-0.43981934,-0.12414551,0.22631836,39 
-48.797607,25.985718,-32.791138,0.44848633,0.5163574,0.61621094,-0.4423828,-0.12597656,0.22265625,40 
-26.504517,26.168823,-37.765503,0.45581055,0.5720215,0.5834961,-0.4423828,-0.12597656,0.22265625,41 
-11.077881,24.215698,-41.992188,0.46533203,0.6062012,0.5595703,-0.44128418,-0.12451172,0.2244873,42 
0.76293945,24.44458,-44.311523,0.47070312,0.6203613,0.5463867,-0.44128418,-0.12451172,0.2244873,43 
10.5896,25.512695,-45.776367,0.46948242,0.61816406,0.5480957,-0.44128418,-0.12451172,0.2244873,44 
13.687134,28.015137,-47.683716,0.47143555,0.595459,0.5534668,-0.44384766,-0.12158203,0.23034668,45 
14.053345,35.79712,-52.03247,0.4921875,0.55249023,0.5773926,-0.4456787,-0.119384766,0.22851562,47 
16.998291,38.101196,-53.28369,0.517334,0.5439453,0.5871582,-0.4456787,-0.119384766,0.22851562,48 
20.67566,39.978027,-56.33545,0.5456543,0.55029297,0.6022949,-0.4456787,-0.119384766,0.22851562,49 
26.33667,42.541504,-58.532715,0.5708008,0.55981445,0.6142578,-0.45007324,-0.1138916,0.23583984,50 
32.684326,43.22815,-61.141968,0.5949707,0.57055664,0.61499023,-0.45007324,-0.1138916,0.23583984,51 
40.84778,40.603638,-61.645508,0.61499023,0.5559082,0.6201172,-0.44714355,-0.111694336,0.234375,52 
44.891357,40.45105,-60.72998,0.62524414,0.52319336,0.6242676,-0.44714355,-0.111694336,0.234375,53 
43.441772,38.879395,-59.08203,0.6374512,0.4790039,0.6188965,-0.44714355,-0.111694336,0.234375,54 
45.272827,38.8031,-58.07495,0.64819336,0.45043945,0.61035156,-0.44750977,-0.107299805,0.23510742,55 
48.461914,35.125732,-55.770874,0.6623535,0.43652344,0.59887695,-0.44750977,-0.107299805,0.23510742,56 
48.27881,31.570435,-53.131104,0.6748047,0.43286133,0.6027832,-0.44970703,-0.10107422,0.2376709,57 
47.25647,28.305054,-51.620483,0.6845703,0.43432617,0.60424805,-0.44970703,-0.10107422,0.2376709,58 
46.50879,23.010254,-49.346924,0.68652344,0.4260254,0.6064453,-0.44970703,-0.10107422,0.2376709,59 
43.762207,18.951416,-46.99707,0.6867676,0.40698242,0.60546875,-0.45007324,-0.0970459,0.24023438,60 
39.93225,15.2282715,-43.777466,0.68530273,0.38842773,0.6064453,-0.45007324,-0.0970459,0.24023438,61 
33.798218,13.900757,-40.69519,0.67993164,0.37402344,0.609375,-0.45080566,-0.09338379,0.23950195,62 
30.62439,11.856079,-37.475586,0.673584,0.36816406,0.6064453,-0.45080566,-0.09338379,0.23950195,63 
31.600952,8.834839,-33.90503,0.66967773,0.359375,0.60375977,-0.45080566,-0.09338379,0.23950195,64 
29.968262,6.80542,-30.532837,0.6640625,0.34301758,0.607666,-0.45007324,-0.08569336,0.23913574,65 
26.779175,4.7302246,-28.213501,0.66186523,0.33154297,0.6164551,-0.45007324,-0.08569336,0.23913574,66 
20.553589,2.4414062,-27.160645,0.66308594,0.31958008,0.626709,-0.45080566,-0.083862305,0.24169922,67 
12.496948,-0.061035156,-26.412964,0.6635742,0.3173828,0.63500977,-0.45080566,-0.083862305,0.24169922,68 
6.576538,-3.3111572,-26.09253,0.6640625,0.32006836,0.6430664,-0.45080566,-0.083862305,0.24169922,69 
-9.3688965,0.2593994,-29.815674,0.64208984,0.29052734,0.64086914,-0.45410156,-0.08203125,0.23986816,70 
-36.16333,7.6446533,-23.330688,0.6550293,0.30078125,0.63012695,-0.45410156,-0.08203125,0.23986816,71 
-20.812988,-2.6245117,-18.814087,0.6911621,0.36889648,0.61279297,-0.44934082,-0.080566406,0.23913574,72 
-7.736206,-3.1585693,-19.592285,0.6850586,0.3930664,0.6086426,-0.44934082,-0.080566406,0.23913574,73 
-1.9836426,-2.2888184,-16.723633,0.68774414,0.39892578,0.60546875,-0.44934082,-0.080566406,0.23913574,74 
6.225586,1.3122559,-15.12146,0.68530273,0.4169922,0.61206055,-0.4482422,-0.08166504,0.23693848,75 
15.258789,2.9144287,-13.702393,0.68066406,0.43652344,0.6147461,-0.4482422,-0.08166504,0.23693848,76 
25.985718,3.3721924,-13.244629,0.6711426,0.44628906,0.62280273,-0.44934082,-0.080566406,0.23986816,77 
34.0271,5.142212,-13.946533,0.6569824,0.43481445,0.63427734,-0.44934082,-0.080566406,0.23986816,78 
38.2843,7.583618,-15.884399,0.638916,0.41088867,0.6472168,-0.44934082,-0.080566406,0.23986816,79 
39.886475,9.811401,-18.035889,0.62231445,0.38232422,0.6574707,-0.4482422,-0.076171875,0.2376709,80 
39.67285,11.932373,-19.622803,0.61328125,0.35327148,0.66430664,-0.4482422,-0.076171875,0.2376709,81 
38.45215,14.389038,-22.125244,0.6081543,0.3251953,0.6672363,-0.4489746,-0.07287598,0.24206543,82 
35.720825,15.197754,-23.361206,0.6040039,0.29833984,0.6647949,-0.4489746,-0.07287598,0.24206543,83 
34.454346,16.799927,-25.344849,0.6081543,0.2919922,0.6640625,-0.4489746,-0.07287598,0.24206543,84 
36.010742,17.13562,-26.657104,0.61206055,0.29345703,0.6621094,-0.45007324,-0.0703125,0.24279785,85 
38.101196,18.463135,-28.274536,0.61499023,0.2939453,0.6582031,-0.45007324,-0.0703125,0.24279785,86 
37.27722,17.501831,-29.129028,0.62109375,0.29467773,0.6520996,-0.4522705,-0.068847656,0.24353027,87 
36.499023,16.113281,-28.7323,0.62890625,0.29589844,0.6459961,-0.4522705,-0.068847656,0.24353027,88 
35.52246,17.105103,-28.182983,0.63549805,0.2932129,0.6401367,-0.4522705,-0.068847656,0.24353027,89 
35.568237,17.303467,-27.389526,0.640625,0.296875,0.63427734,-0.44970703,-0.06298828,0.23620605,90 
35.55298,17.181396,-26.70288,0.64868164,0.2919922,0.6311035,-0.44970703,-0.06298828,0.23620605,91 
33.37097,16.174316,-25.924683,0.65722656,0.2854004,0.6323242,-0.4456787,-0.060058594,0.2446289,92 
28.22876,14.49585,-26.901245,0.6689453,0.2722168,0.6345215,-0.4456787,-0.060058594,0.2446289,93 
20.233154,12.954712,-26.443481,0.67285156,0.25756836,0.6386719,-0.4456787,-0.060058594,0.2446289,94 
17.27295,11.749268,-26.168823,0.6767578,0.26416016,0.6345215,-0.4482422,-0.057128906,0.24719238,95 
15.472412,9.82666,-26.153564,0.6855469,0.2697754,0.6303711,-0.4482422,-0.057128906,0.24719238,96 
13.641357,9.048462,-25.360107,0.6906738,0.2758789,0.6257324,-0.44714355,-0.051635742,0.24829102,97 
11.581421,8.560181,-24.047852,0.6960449,0.27856445,0.61694336,-0.44714355,-0.051635742,0.24829102,98 
10.223389,8.300781,-23.162842,0.69506836,0.28100586,0.60791016,-0.44714355,-0.051635742,0.24829102,99 
8.590698,8.621216,-22.476196,0.69018555,0.29052734,0.60424805,-0.44750977,-0.053100586,0.24353027,100 
10.437012,8.285522,-22.445679,0.68310547,0.30029297,0.60058594,-0.44750977,-0.053100586,0.24353027,101 
10.681152,9.140015,-22.888184,0.6789551,0.3005371,0.59643555,-0.45043945,-0.052734375,0.2512207,102 
5.3863525,8.911133,-23.086548,0.6765137,0.2861328,0.5983887,-0.45043945,-0.052734375,0.2512207,103 
1.0375977,10.498047,-23.1781,0.67041016,0.28442383,0.5979004,-0.45043945,-0.052734375,0.2512207,104 
-0.19836426,10.391235,-23.086548,0.6711426,0.2902832,0.59936523,-0.4515381,-0.048339844,0.24609375,105 
-3.1585693,11.764526,-24.44458,0.66674805,0.3034668,0.61328125,-0.45043945,-0.046875,0.24572754,107 
-5.142212,13.519287,-25.177002,0.6652832,0.29907227,0.61621094,-0.45043945,-0.046875,0.24572754,108 
-6.149292,14.785767,-25.039673,0.6672363,0.29296875,0.61499023,-0.45043945,-0.046875,0.24572754,109 
-11.21521,14.266968,-24.536133,0.6713867,0.28173828,0.62353516,-0.4522705,-0.044677734,0.24609375,110 
-11.947632,20.309448,-22.628784,0.6677246,0.28564453,0.6308594,-0.4522705,-0.044677734,0.24609375,111 
-6.942749,24.215698,-22.506714,0.66918945,0.30615234,0.6335449,-0.44677734,-0.044677734,0.2512207,112 
1.8615723,30.273438,-21.102905,0.66259766,0.33032227,0.6447754,-0.44677734,-0.044677734,0.2512207,113 
12.680054,36.468506,-18.432617,0.66430664,0.36376953,0.64941406,-0.44677734,-0.044677734,0.2512207,114 
24.780273,41.07666,-11.688232,0.6723633,0.4086914,0.6503906,-0.44750977,-0.048339844,0.24682617,115 
49.926758,47.62268,-3.7994385,0.6813965,0.4650879,0.6359863,-0.44750977,-0.048339844,0.24682617,116 
76.797485,50.598145,12.4053955,0.69799805,0.5083008,0.6130371,-0.4522705,-0.04284668,0.2545166,117 
98.55652,51.01013,24.07837,0.71191406,0.50268555,0.59765625,-0.4522705,-0.04284668,0.2545166,118 
108.32214,54.092407,40.43579,0.7163086,0.45166016,0.5871582,-0.4522705,-0.04284668,0.2545166,119 
110.321045,54.9469,50.39978,0.70825195,0.39941406,0.5930176,-0.4555664,-0.040283203,0.25378418,120 
108.24585,64.88037,57.144165,0.6977539,0.37231445,0.6123047,-0.4555664,-0.040283203,0.25378418,121 
100.631714,69.04602,59.143066,0.69262695,0.37036133,0.6257324,-0.45739746,-0.036987305,0.26623535,122 
95.047,72.75391,61.965942,0.68969727,0.37280273,0.62231445,-0.45739746,-0.036987305,0.26623535,123 
103.74451,73.0896,72.21985,0.6936035,0.3840332,0.6032715,-0.45739746,-0.036987305,0.26623535,124 
126.586914,69.45801,83.03833,0.70654297,0.39648438,0.5625,-0.46032715,-0.035888672,0.26550293,125 
165.31372,57.388306,100.67749,0.73168945,0.3894043,0.51660156,-0.46032715,-0.035888672,0.26550293,126 
193.1305,44.60144,110.22949,0.76464844,0.36254883,0.47021484,-0.46984863,-0.032592773,0.27282715,127 
216.53748,33.828735,128.2196,0.79467773,0.3227539,0.42138672,-0.46984863,-0.032592773,0.27282715,128 
245.54443,23.880005,144.21082,0.80249023,0.29907227,0.35424805,-0.46984863,-0.032592773,0.27282715,129 
283.27942,11.383057,156.81458,0.78466797,0.29736328,0.27368164,-0.46801758,-0.028564453,0.27978516,130 
328.26233,-23.452759,174.86572,0.7624512,0.28222656,0.16625977,-0.46801758,-0.028564453,0.27978516,131 
377.45667,-55.19104,183.62427,0.6850586,0.22241211,0.08959961,-0.475708,-0.025634766,0.2845459,132 
422.2412,-63.415527,174.49951,0.5827637,0.16455078,0.068603516,-0.475708,-0.025634766,0.2845459,133 
460.3424,-73.85254,158.73718,0.5307617,0.111816406,0.03857422,-0.475708,-0.025634766,0.28381348,134 
489.71558,-82.82471,139.17542,0.50268555,0.041503906,0.04638672,-0.47058105,-0.016845703,0.28381348,135 
499.9237,-86.41052,119.644165,0.4873047,-0.044189453,0.10839844,-0.47058105,-0.016845703,0.28381348,136 
499.9237,-83.465576,97.38159,0.47851562,-0.1730957,0.20532227,-0.4724121,0.0014648438,0.29736328,137 
499.9237,-70.58716,70.892334,0.4741211,-0.34838867,0.34204102,-0.4724121,0.0014648438,0.29736328,138 
496.91772,-62.957764,50.201416,0.5136719,-0.4814453,0.5036621,-0.4724121,0.0014648438,0.29736328,139 
427.97852,-68.51196,49.16382,0.5966797,-0.55444336,0.64697266,-0.47094727,0.021972656,0.30541992,140 
343.6432,-77.20947,52.978516,0.6960449,-0.5505371,0.71606445,-0.47094727,0.021972656,0.30541992,141 
265.79285,-77.01111,60.10437,0.7741699,-0.4663086,0.7565918,-0.4716797,0.03515625,0.31604004,142 
213.7146,-60.272217,65.826416,0.7993164,-0.32470703,0.7961426,-0.4716797,0.03515625,0.31604004,143 
199.00513,-41.656494,65.93323,0.8076172,-0.17016602,0.8222656,-0.4716797,0.03515625,0.31604004,144 
183.33435,-13.153076,66.74194,0.8210449,-0.06982422,0.8239746,-0.46618652,0.042114258,0.31274414,145 
174.80469,29.327393,57.83081,0.84033203,0.00048828125,0.8286133,-0.46618652,0.042114258,0.31274414,146 
164.81018,36.239624,64.89563,0.8083496,0.072509766,0.7961426,-0.4716797,0.04321289,0.32373047,147 
174.60632,79.62036,48.110962,0.7873535,0.115722656,0.7780762,-0.4716797,0.044311523,0.33215332,149 
155.94482,83.099365,20.385742,0.8027344,0.019042969,0.81274414,-0.47387695,0.044311523,0.33215332,150 
91.171265,79.6814,-5.9509277,0.7944336,-0.20483398,0.90063477,-0.47387695,0.044311523,0.33215332,151 
64.0564,64.575195,-9.750366,0.8095703,-0.38671875,0.96313477,-0.47827148,0.047607422,0.33947754,152 
32.089233,29.724121,-13.504028,0.8173828,-0.5205078,1.0356445,-0.47827148,0.047607422,0.33947754,153 
-5.3100586,-6.4697266,-16.281128,0.7866211,-0.59472656,1.09375,-0.47827148,0.047607422,0.33947754,154 
-9.170532,-21.347046,-20.935059,0.76342773,-0.5510254,1.1088867,-0.47680664,0.047973633,0.33764648,155 
-4.928589,-38.604736,-21.697998,0.79125977,-0.44750977,1.074707,-0.47680664,0.047973633,0.33764648,156 
-5.004883,-47.60742,-24.017334,0.80078125,-0.43676758,1.0097656,-0.47680664,0.05419922,0.34020996,157 
-6.92749,-42.114258,-25.19226,0.765625,-0.33764648,0.9169922,-0.47680664,0.05419922,0.34020996,158 
-23.1781,-31.204224,-22.567749,0.69799805,-0.34814453,0.7998047,-0.47680664,0.05419922,0.34020996,159 
-46.020508,-18.325806,-18.737793,0.6274414,-0.38842773,0.6809082,-0.4753418,0.05090332,0.34277344,160 
-72.06726,-5.340576,-13.61084,0.56518555,-0.41845703,0.595459,-0.4753418,0.05090332,0.34277344,161 
-89.81323,4.486084,-15.533447,0.53808594,-0.39453125,0.55810547,-0.47717285,0.04724121,0.3343506,162 
-96.37451,9.094238,-10.818481,0.54663086,-0.32470703,0.5786133,-0.47717285,0.04724121,0.3343506,163 
-91.033936,11.581421,-12.10022,0.5727539,-0.23583984,0.62768555,-0.47717285,0.047607422,0.3314209,164 
-78.91846,5.4779053,-13.137817,0.59521484,-0.14892578,0.6958008,-0.47424316,0.047607422,0.3314209,165 
-67.70325,3.3111572,-10.803223,0.6142578,-0.08642578,0.7507324,-0.47424316,0.047607422,0.3314209,166 
-57.388306,0.79345703,-7.6141357,0.6225586,-0.03857422,0.7746582,-0.4753418,0.049072266,0.33068848,167 
-47.943115,-3.036499,-4.8980713,0.6269531,-0.0087890625,0.7751465,-0.4753418,0.049072266,0.33068848,168 
-36.895752,-9.307861,-4.8980713,0.63378906,-0.0017089844,0.7590332,-0.4753418,0.049072266,0.32958984,169 
-34.851074,-16.860962,-4.333496,0.6411133,-0.0146484375,0.73706055,-0.47314453,0.046875,0.32958984,170 
-22.93396,-22.399902,-3.1280518,0.6401367,-0.022460938,0.71899414,-0.47314453,0.046875,0.32958984,171 
-15.838623,-25.19226,-1.9073486,0.6413574,-0.033691406,0.71118164,-0.47131348,0.0435791,0.32958984,172 
-12.72583,-26.412964,-1.1901855,0.6437988,-0.052490234,0.7060547,-0.47131348,0.0435791,0.32958984,173 
-13.381958,-24.612427,1.1901855,0.6345215,-0.084228516,0.7072754,-0.47131348,0.0435791,0.32885742,174 
-10.925293,-16.662598,1.2664795,0.62841797,-0.08105469,0.72509766,-0.46765137,0.03955078,0.32885742,175 
-6.4086914,-10.528564,-2.1972656,0.62939453,-0.061279297,0.7392578,-0.46765137,0.03955078,0.32885742,176 
-1.739502,1.0681152,-2.9907227,0.62402344,-0.06347656,0.74975586,-0.47277832,0.040283203,0.32629395,177 
-3.2958984,10.437012,-7.461548,0.6262207,-0.08935547,0.74853516,-0.47277832,0.040283203,0.32629395,178 
-8.94165,20.950317,-9.567261,0.63012695,-0.11401367,0.7373047,-0.46875,0.039916992,0.32373047,179 
-16.311646,29.907227,-8.239746,0.62719727,-0.1394043,0.7211914,-0.46875,0.039916992,0.32373047,180 
-20.721436,38.66577,-7.4005127,0.62890625,-0.14697266,0.72021484,-0.46875,0.039916992,0.32373047,181 
-25.253296,43.899536,-6.5307617,0.63427734,-0.15795898,0.7150879,-0.47094727,0.03955078,0.3277588,182 
-27.053833,46.203613,-7.4310303,0.6381836,-0.15576172,0.71655273,-0.47094727,0.03955078,0.3277588,183 
-22.338867,46.14258,-9.994507,0.6582031,-0.11206055,0.7453613,-0.47094727,0.03955078,0.32592773,184 
-15.777588,46.3562,-12.084961,0.6796875,-0.06518555,0.7570801,-0.47094727,0.03955078,0.32592773,185 
-14.663696,42.892456,-14.9383545,0.6850586,-0.06567383,0.7282715,-0.47094727,0.03955078,0.32592773,186 
-20.53833,42.160034,-15.899658,0.67163086,-0.09667969,0.68725586,-0.47717285,0.038085938,0.33215332,187 
-25.558472,39.871216,-16.723633,0.66259766,-0.12011719,0.6628418,-0.47717285,0.038085938,0.33215332,188 
-29.49524,37.521362,-19.14978,0.6677246,-0.12719727,0.65722656,-0.47717285,0.03918457,0.32629395,189 
-30.914307,33.52356,-21.1792,0.68115234,-0.11352539,0.6652832,-0.475708,0.03918457,0.32629395,190 
-32.51648,32.348633,-21.80481,0.6999512,-0.091796875,0.6833496,-0.475708,0.03918457,0.32629395,191 
-31.25,29.99878,-24.597168,0.7128906,-0.07104492,0.6958008,-0.48046875,0.03479004,0.3277588,192 
-35.38513,30.014038,-23.452759,0.7141113,-0.07421875,0.6984863,-0.48046875,0.03479004,0.3277588,193 
-38.589478,31.188965,-25.634766,0.70458984,-0.07446289,0.69311523,-0.4786377,0.036987305,0.3251953,194 
-42.053223,34.240723,-26.611328,0.6965332,-0.075683594,0.6970215,-0.4786377,0.036987305,0.3251953,195 
-45.776367,35.461426,-28.671265,0.6916504,-0.07421875,0.6965332,-0.4786377,0.036987305,0.3251953,196 
-51.498413,39.04724,-28.945923,0.67822266,-0.08227539,0.6809082,-0.47827148,0.037719727,0.32958984,197 
-54.626465,40.786743,-31.63147,0.6689453,-0.07910156,0.6640625,-0.47827148,0.037719727,0.32958984,198 
-55.19104,42.3584,-32.226562,0.6645508,-0.07128906,0.6726074,-0.47827148,0.036621094,0.32958984,199 
-55.96924,38.55896,-30.059814,0.6706543,-0.06982422,0.68237305,-0.47827148,0.036621094,0.32958984,200 
-55.526733,46.63086,-30.212402,0.6623535,-0.052246094,0.69189453,-0.47827148,0.036621094,0.32958984,201 
-56.45752,49.057007,-28.366089,0.6623535,-0.044921875,0.6899414,-0.48010254,0.03881836,0.33032227,202 
-54.91638,50.460815,-27.893066,0.6604004,-0.029785156,0.6838379,-0.48010254,0.03881836,0.33032227,203 
-54.138184,51.68152,-27.404785,0.66137695,-0.016845703,0.6813965,-0.47937012,0.03881836,0.328125,204 
-48.8739,53.329468,-25.848389,0.6645508,-0.017822266,0.6791992,-0.47937012,0.03881836,0.328125,205 
-42.57202,53.66516,-24.093628,0.6599121,-0.022460938,0.6635742,-0.47937012,0.03881836,0.328125,206 
-42.83142,54.19922,-23.07129,0.6530762,-0.040771484,0.6418457,-0.48339844,0.038085938,0.32885742,207 
-44.96765,53.878784,-22.750854,0.64819336,-0.052490234,0.68725586,-0.48339844,0.038085938,0.32885742,208 
-45.08972,51.40686,-23.147583,0.6525879,-0.051513672,0.6135254,-0.4819336,0.03881836,0.32885742,209 
-42.922974,47.76001,-23.117065,0.6652832,-0.041992188,0.6142578,-0.4819336,0.03881836,0.32885742,210 
-40.740967,43.8385,-22.460938,0.6813965,-0.037841797,0.6269531,-0.4819336,0.03881836,0.32885742,211 
-38.69629,39.67285,-22.094727,0.6989746,-0.040527344,0.6364746,-0.4859619,0.037353516,0.33068848,212 
-38.391113,37.872314,-21.255493,0.7133789,-0.05053711,0.63183594,-0.4859619,0.037353516,0.33068848,213 
-44.937134,33.996582,-21.30127,0.7363281,-0.088134766,0.59375,-0.48083496,0.038085938,0.3284912,215 
-51.66626,31.738281,-23.361206,0.7421875,-0.111572266,0.5632324,-0.48083496,0.038085938,0.3284912,216 
-59.829712,28.869629,-25.787354,0.7446289,-0.13427734,0.54345703,-0.4855957,0.036987305,0.33398438,217 
-63.079834,22.659302,-28.335571,0.75024414,-0.13745117,0.545166,-0.4855957,0.036987305,0.33398438,218 
-62.667847,18.89038,-30.822754,0.7609863,-0.12084961,0.56396484,-0.48303223,0.034057617,0.32885742,219 
-58.82263,7.751465,-31.692505,0.7705078,-0.100097656,0.5891113,-0.48303223,0.034057617,0.32885742,220 
-52.4292,0.90026855,-31.402588,0.77734375,-0.08081055,0.6074219,-0.48303223,0.034057617,0.32885742,221 
-48.24829,-3.4942627,-31.478882,0.78149414,-0.06689453,0.62109375,-0.48046875,0.037719727,0.3215332,222 
-45.333862,-8.880615,-30.166626,0.7792969,-0.059570312,0.63305664,-0.48046875,0.037719727,0.3215332,223 
-42.60254,-12.298584,-27.60315,0.77368164,-0.055908203,0.6425781,-0.48010254,0.03918457,0.3251953,224 
-40.267944,-12.786865,-26.062012,0.7648926,-0.053222656,0.65283203,-0.48010254,0.03918457,0.3251953,225 
-37.124634,-11.306763,-25.390625,0.75268555,-0.05078125,0.66064453,-0.48010254,0.03918457,0.3251953,226 
-40.161133,-4.1503906,-23.117065,0.73828125,-0.06518555,0.6599121,-0.4790039,0.036621094,0.32373047,227 
-44.58618,0.39672852,-21.240234,0.72314453,-0.091552734,0.64819336,-0.4790039,0.036621094,0.32373047,228 
-49.88098,2.7770996,-17.608643,0.7126465,-0.100097656,0.64160156,-0.47387695,0.038085938,0.32006836,229 
-51.9104,4.470825,-12.786865,0.7077637,-0.088134766,0.640625,-0.47387695,0.038085938,0.32006836,230 
-49.49951,4.3945312,-9.140015,0.7062988,-0.06689453,0.6413574,-0.47387695,0.038085938,0.32006836,231 
-41.427612,1.6937256,-6.515503,0.70581055,-0.041015625,0.640625,-0.47790527,0.03515625,0.3178711,232 
-30.273438,-2.39563,-5.126953,0.70703125,-0.016845703,0.6413574,-0.47790527,0.03515625,0.3178711,233 
-20.67566,-5.7678223,-2.7160645,0.7036133,-0.010498047,0.6411133,-0.47680664,0.035888672,0.32299805,234 
-20.78247,-7.0343018,2.0751953,0.6911621,-0.033203125,0.63623047,-0.47680664,0.035888672,0.32299805,235 
-24.429321,-4.8675537,7.2021484,0.67578125,-0.07910156,0.6323242,-0.47680664,0.035888672,0.32299805,236 
-25.726318,-3.463745,10.116577,0.66308594,-0.10522461,0.63256836,-0.4749756,0.034057617,0.3182373,237 
-27.450562,-0.061035156,11.932373,0.6484375,-0.12036133,0.6369629,-0.4749756,0.034057617,0.3182373,238 
-29.61731,2.1209717,13.977051,0.6376953,-0.13598633,0.6401367,-0.475708,0.03186035,0.31970215,239 
-30.960083,1.6937256,13.687134,0.6323242,-0.14282227,0.6398926,-0.475708,0.03186035,0.31970215,240 
-36.331177,1.9836426,15.197754,0.6269531,-0.14672852,0.6398926,-0.475708,0.03186035,0.31970215,241 
-37.460327,1.2969971,18.90564,0.62646484,-0.1459961,0.65966797,-0.47827148,0.03552246,0.3178711,242 
-32.65381,0.62561035,21.148682,0.63671875,-0.12646484,0.6933594,-0.47827148,0.03552246,0.3178711,243 
-27.572632,-2.7313232,22.18628,0.6479492,-0.095458984,0.7236328,-0.47644043,0.03186035,0.3109131,244 
-20.339966,-6.134033,24.932861,0.65527344,-0.049316406,0.7463379,-0.47644043,0.03186035,0.3109131,245 
-14.205933,-8.529663,26.59607,0.6608887,-0.0078125,0.7565918,-0.47644043,0.03186035,0.3109131,246 
-7.9193115,-10.131836,28.305054,0.66918945,0.026123047,0.7609863,-0.47607422,0.028198242,0.31311035,247 
-3.1433105,-11.550903,29.022217,0.67944336,0.053222656,0.76293945,-0.47607422,0.028198242,0.31311035,248 
7.247925,-11.245728,27.557373,0.6855469,0.07543945,0.75805664,-0.4749756,0.024902344,0.3083496,249 
12.939453,-9.017944,26.107788,0.68896484,0.08178711,0.7519531,-0.4749756,0.024902344,0.3083496,250 
16.860962,-8.590698,23.345947,0.6911621,0.07861328,0.736084,-0.4749756,0.024902344,0.3083496,251 
25.741577,-5.569458,18.920898,0.68652344,0.0859375,0.7207031,-0.48010254,0.022705078,0.3050537,252 
33.493042,-2.1209717,14.526367,0.6867676,0.095703125,0.70874023,-0.48010254,0.022705078,0.3050537,253 
40.43579,0.6713867,12.8479,0.68530273,0.09057617,0.7001953,-0.47827148,0.02709961,0.3109131,254 
45.303345,3.7231445,13.977051,0.6821289,0.080566406,0.6989746,-0.47827148,0.02709961,0.3109131,255 
49.209595,10.406494,14.49585,0.6809082,0.063964844,0.70166016,-0.47827148,0.02709961,0.3109131,0 
52.41394,14.465332,16.799927,0.6789551,0.039794922,0.69628906,-0.47644043,0.026367188,0.3149414,1 
50.39978,20.248413,19.454956,0.6723633,0.015380859,0.6862793,-0.47644043,0.026367188,0.3149414,2 
48.233032,24.06311,21.80481,0.6748047,-0.0061035156,0.67041016,-0.47607422,0.029296875,0.31237793,3 
46.020508,24.871826,21.92688,0.68408203,-0.020507812,0.6479492,-0.47607422,0.029296875,0.31237793,4 
43.85376,23.010254,24.32251,0.69921875,-0.021728516,0.6345215,-0.47607422,0.029296875,0.31237793,5 
44.662476,22.399902,24.810791,0.72216797,-0.00048828125,0.6411133,-0.48156738,0.026367188,0.32043457,6 
46.936035,21.54541,25.543213,0.7504883,0.020507812,0.6611328,-0.48156738,0.026367188,0.32043457,7 
51.193237,22.79663,25.283813,0.7741699,0.025634766,0.6904297,-0.48083496,0.028930664,0.31384277,8 
61.87439,24.932861,22.55249,0.7832031,0.052734375,0.7097168,-0.48083496,0.028930664,0.31384277,9 
66.81824,31.49414,17.868042,0.7836914,0.08691406,0.70336914,-0.48083496,0.028930664,0.31384277,10 
76.812744,32.608032,14.038086,0.77734375,0.09375,0.6706543,-0.48083496,0.026733398,0.31860352,11 
76.61438,32.39441,12.283325,0.7631836,0.08227539,0.6386719,-0.48083496,0.026733398,0.31860352,12 
72.21985,33.87451,21.881104,0.7602539,0.064941406,0.640625,-0.4790039,0.030395508,0.32922363,13 
70.8313,27.893066,26.657104,0.78271484,0.053466797,0.6418457,-0.4790039,0.030395508,0.32922363,14 
71.624756,16.494751,25.283813,0.8046875,0.057861328,0.6323242,-0.4790039,0.030395508,0.32922363,15 
74.73755,6.6223145,23.529053,0.81518555,0.06665039,0.62353516,-0.48706055,0.03149414,0.33618164,16 
86.502075,4.501343,22.399902,0.81884766,0.10107422,0.6452637,-0.48706055,0.03149414,0.33618164,17 
100.89111,3.4942627,22.766113,0.83032227,0.13793945,0.671875,-0.48303223,0.030761719,0.33581543,18 
105.68237,2.670288,24.68872,0.8256836,0.14770508,0.6730957,-0.48303223,0.030761719,0.33581543,19 
109.64966,1.3885498,26.535034,0.7998047,0.111816406,0.6533203,-0.48303223,0.030761719,0.33581543,20 
103.83606,0.6866455,29.006958,0.77197266,0.05126953,0.6333008,-0.48449707,0.034057617,0.33398438,21 
97.732544,-0.9918213,29.663086,0.7512207,-0.0073242188,0.6220703,-0.48449707,0.034057617,0.33398438,22 
94.9707,-4.3792725,28.9917,0.7390137,-0.033203125,0.6274414,-0.49035645,0.032226562,0.34204102,23 
98.602295,-8.666992,29.23584,0.73779297,-0.028564453,0.6459961,-0.49035645,0.032226562,0.34204102,24 
102.09656,-14.389038,28.579712,0.74609375,-0.01928711,0.66015625,-0.49035645,0.032226562,0.34204102,25 
102.249146,-18.38684,27.328491,0.74731445,-0.021484375,0.6513672,-0.48449707,0.036254883,0.33911133,26 
102.27966,-20.9198,23.6969,0.73950195,-0.022949219,0.64819336,-0.48449707,0.036254883,0.33911133,27 
103.40881,-21.652222,23.345947,0.7421875,-0.009765625,0.6557617,-0.48706055,0.037353516,0.3449707,28 
109.87854,-24.44458,20.050049,0.75,0.023925781,0.6791992,-0.48706055,0.037353516,0.3449707,29 
118.4082,-25.45166,16.662598,0.75927734,0.0390625,0.69384766,-0.48706055,0.037353516,0.3449707,30 
120.72754,-29.281616,13.061523,0.75805664,0.008300781,0.689209,-0.48815918,0.036987305,0.34936523,31 
118.30139,-34.39331,10.940552,0.7507324,-0.04345703,0.66967773,-0.48815918,0.036987305,0.34936523,32 
118.86597,-35.980225,9.963989,0.74316406,-0.0690918,0.66748047,-0.48449707,0.041748047,0.35412598,33 
128.7384,-46.020508,7.5531006,0.7446289,-0.044677734,0.68188477,-0.48449707,0.041748047,0.35412598,34 
150.81787,-56.900024,6.7596436,0.7578125,-0.009033203,0.6882324,-0.48449707,0.041748047,0.35412598,35 
169.23523,-65.73486,3.9672852,0.7607422,-0.025634766,0.66430664,-0.49035645,0.03955078,0.35559082,36 
173.21777,-70.26672,-0.62561035,0.751709,-0.09790039,0.6179199,-0.49035645,0.03955078,0.35559082,37 
168.47229,-67.44385,-11.581421,0.7260742,-0.14697266,0.58154297,-0.4852295,0.0435791,0.35705566,38 
157.27234,-61.85913,-11.825562,0.701416,-0.17675781,0.5661621,-0.4852295,0.0435791,0.35705566,39 
139.43481,-55.69458,-17.059326,0.6845703,-0.22436523,0.5480957,-0.4852295,0.0435791,0.35705566,40 
113.73901,-51.330566,-16.51001,0.6723633,-0.29003906,0.52246094,-0.4852295,0.051635742,0.35229492,41 
89.24866,-49.819946,-17.181396,0.6604004,-0.3293457,0.5061035,-0.4852295,0.051635742,0.35229492,42 
73.68469,-48.12622,-18.234253,0.6569824,-0.32836914,0.5126953,-0.48376465,0.053466797,0.35742188,43 
64.02588,-46.50879,-23.040771,0.66674805,-0.32104492,0.5332031,-0.48376465,0.053466797,0.35742188,44 
49.118042,-46.707153,-24.978638,0.67456055,-0.32348633,0.5505371,-0.48376465,0.053466797,0.35742188,45 
33.187866,-45.333862,-28.045654,0.6765137,-0.34106445,0.55737305,-0.4786377,0.057861328,0.35742188,46 
16.799927,-44.8761,-27.46582,0.6706543,-0.37475586,0.5605469,-0.4786377,0.057861328,0.35742188,47 
1.9226074,-42.86194,-35.964966,0.6604004,-0.40185547,0.5671387,-0.47460938,0.05895996,0.35632324,48 
-14.038086,-42.663574,-37.765503,0.64697266,-0.42260742,0.5793457,-0.47460938,0.05895996,0.35632324,49 
-31.692505,-31.402588,-37.704468,0.6315918,-0.4338379,0.5827637,-0.47460938,0.05895996,0.35632324,50 
-55.17578,-26.794434,-36.315918,0.6098633,-0.45043945,0.5751953,-0.47021484,0.060791016,0.35375977,51 
-75.51575,-13.031006,-34.04236,0.5900879,-0.4416504,0.5751953,-0.47021484,0.060791016,0.35375977,52 
-88.88245,-4.119873,-33.66089,0.5793457,-0.42041016,0.5913086,-0.47277832,0.06262207,0.35046387,53 
-97.16797,2.89917,-32.806396,0.56884766,-0.3984375,0.60961914,-0.47277832,0.06262207,0.35046387,54 
-98.64807,9.307861,-32.943726,0.5686035,-0.36376953,0.6381836,-0.47277832,0.06262207,0.35046387,55 
-98.66333,15.136719,-33.53882,0.5722656,-0.33032227,0.6608887,-0.4683838,0.0637207,0.33911133,56 
-96.51184,18.753052,-33.996582,0.57543945,-0.30444336,0.68359375,-0.4683838,0.0637207,0.33911133,57 
-90.37781,21.606445,-31.87561,0.5834961,-0.27026367,0.704834,-0.46618652,0.05859375,0.33947754,58 
-79.84924,23.544312,-28.808594,0.5895996,-0.23486328,0.7229004,-0.46618652,0.05859375,0.33947754,59 
-63.735962,26.931763,-25.222778,0.58691406,-0.19116211,0.73828125,-0.46618652,0.05859375,0.33947754,60 
-46.279907,32.485962,-22.460938,0.5822754,-0.1694336,0.7270508,-0.4654541,0.05859375,0.33618164,61 
-39.367676,39.33716,-18.829346,0.5710449,-0.19213867,0.67626953,-0.4654541,0.05859375,0.33618164,62 
-55.404663,50.78125,-13.061523,0.55371094,-0.23657227,0.5966797,-0.46801758,0.057861328,0.3380127,63 
-89.95056,66.86401,-11.016846,0.5266113,-0.3095703,0.47973633,-0.46801758,0.057861328,0.3380127,64 
-135.75745,77.25525,-5.6610107,0.49560547,-0.3720703,0.3540039,-0.46801758,0.057861328,0.3380127,65 
-147.17102,81.588745,-20.9198,0.48583984,-0.3564453,0.29467773,-0.46948242,0.060058594,0.3317871,66 
-126.37329,77.07214,-30.517578,0.5102539,-0.31933594,0.3010254,-0.46948242,0.060058594,0.3317871,67 
-85.9375,79.0863,-50.842285,0.56396484,-0.23364258,0.3413086,-0.4716797,0.056396484,0.33288574,68 
-45.135498,60.546875,-50.14038,0.65112305,-0.15454102,0.40625,-0.4716797,0.056396484,0.33288574,69 
16.662598,10.818481,-48.217773,0.75756836,-0.09301758,0.53344727,-0.4716797,0.056396484,0.33288574,70 
49.01123,-58.31909,-55.41992,0.87158203,-0.008056641,0.6738281,-0.46765137,0.059692383,0.33581543,71 
59.661865,-120.11719,-33.37097,0.9567871,0.03515625,0.8666992,-0.46765137,0.059692383,0.33581543,72 
60.668945,-165.802,-20.965576,0.98339844,0.009765625,1.0419922,-0.45959473,0.06298828,0.33618164,73 
59.432983,-177.6123,-12.6953125,0.9399414,-0.011230469,1.1608887,-0.45959473,0.06298828,0.33618164,74 
43.121338,-139.4043,11.001587,0.82592773,0.018554688,1.1813965,-0.45959473,0.06298828,0.33618164,75 
59.21936,-91.47644,14.770508,0.73168945,0.115478516,1.1105957,-0.4555664,0.064086914,0.3248291,76 
80.99365,-60.2417,8.4991455,0.6789551,0.13891602,1.0070801,-0.4555664,0.064086914,0.3248291,77 
85.250854,-14.892578,3.2348633,0.60424805,0.04711914,0.9194336,-0.4519043,0.06518555,0.3310547,78 
87.96692,32.15027,-11.260986,0.53515625,-0.14086914,0.8400879,-0.4519043,0.06518555,0.3310547,79 
56.900024,55.69458,-18.463135,0.4880371,-0.26660156,0.76831055,-0.4519043,0.06518555,0.3310547,80 
20.874023,80.50537,-14.99939,0.45043945,-0.36010742,0.7402344,-0.4515381,0.06994629,0.32995605,81 
-4.0893555,104.0802,-15.289307,0.44018555,-0.37109375,0.7351074,-0.4515381,0.06994629,0.32995605,82 
-6.7596436,120.19348,-19.28711,0.46191406,-0.30371094,0.74560547,-0.45812988,0.0703125,0.33911133,83 
-3.40271,128.72314,-25.894165,0.5,-0.19433594,0.75268555,-0.45812988,0.0703125,0.33911133,84 
21.942139,129.2572,-37.887573,0.5576172,-0.075683594,0.7675781,-0.45812988,0.0703125,0.34643555,85 
39.29138,124.13025,-41.870117,0.6135254,0.0078125,0.7714844,-0.45812988,0.076171875,0.34643555,86 
50.872803,121.154785,-36.17859,0.6508789,0.04711914,0.7648926,-0.45812988,0.076171875,0.34643555,87 
45.654297,119.41528,-30.670166,0.67529297,0.001953125,0.74560547,-0.45666504,0.0769043,0.3585205,88 
14.724731,117.30957,-18.814087,0.68188477,-0.13330078,0.70092773,-0.45666504,0.0769043,0.3585205,89 
-37.506104,119.15588,-2.2735596,0.6599121,-0.26635742,0.6437988,-0.45666504,0.0769043,0.3585205,90 
-122.528076,143.29529,6.576538,0.62719727,-0.34960938,0.6464844,-0.46032715,0.076538086,0.35668945,91 
-174.85046,142.65442,4.348755,0.6269531,-0.3881836,0.6826172,-0.46032715,0.076538086,0.35668945,92 
-167.60254,124.09973,-4.6539307,0.64697266,-0.36743164,0.6645508,-0.46325684,0.0703125,0.35961914,93 
-130.8899,102.752686,-17.51709,0.67871094,-0.29125977,0.6064453,-0.46325684,0.0703125,0.35961914,94 
-95.35217,75.302124,-30.24292,0.72509766,-0.24780273,0.5551758,-0.46325684,0.0703125,0.35961914,95 
-64.37683,48.324585,-31.89087,0.75878906,-0.13330078,0.54052734,-0.4654541,0.06774902,0.35888672,96 
-50.247192,33.03528,-40.664673,0.7709961,-0.11669922,0.55859375,-0.4654541,0.06774902,0.35888672,97 
-45.12024,15.12146,-50.231934,0.7885742,-0.12963867,0.5749512,-0.46875,0.06665039,0.3548584,98 
-41.33606,1.2054443,-56.015015,0.8066406,-0.19995117,0.58984375,-0.46875,0.06665039,0.3548584,99 
-53.29895,-8.163452,-58.21228,0.7988281,-0.29858398,0.59716797,-0.46875,0.07141113,0.35559082,100 
-68.14575,-9.689331,-54.80957,0.78564453,-0.3630371,0.61743164,-0.46472168,0.07141113,0.35559082,101 
-74.73755,-21.392822,-57.724,0.79711914,-0.36499023,0.6364746,-0.46472168,0.07141113,0.35559082,102 
-81.05469,-24.07837,-55.847168,0.80126953,-0.33666992,0.66186523,-0.46362305,0.07397461,0.35302734,103 
-83.099365,-22.842407,-46.905518,0.7963867,-0.2878418,0.6816406,-0.46362305,0.07397461,0.35302734,104 
-77.46887,-27.114868,-46.447754,0.7836914,-0.2409668,0.6845703,-0.46362305,0.07397461,0.3515625,105 
-66.92505,-29.47998,-41.503906,0.7541504,-0.19116211,0.670166,-0.4588623,0.07397461,0.3515625,106 
-54.44336,-26.504517,-33.447266,0.72998047,-0.16210938,0.6401367,-0.4588623,0.07397461,0.3515625,107 
-33.065796,-27.404785,-20.843506,0.72802734,-0.15185547,0.62524414,-0.4584961,0.07470703,0.34570312,108 
-22.018433,-32.196045,-18.844604,0.7150879,-0.15307617,0.6164551,-0.4584961,0.07470703,0.34570312,109 
-17.486572,-26.504517,-16.281128,0.69506836,-0.15820312,0.62060547,-0.4584961,0.07287598,0.3446045,110 
-14.083862,-25.741577,-14.190674,0.6894531,-0.16918945,0.61621094,-0.45703125,0.07287598,0.3446045,111 
-15.457153,-22.399902,-12.771606,0.6796875,-0.18652344,0.60546875,-0.45703125,0.07287598,0.3446045,112 
-12.1154785,-22.55249,-11.672974,0.67700195,-0.18676758,0.6230469,-0.45593262,0.075805664,0.3383789,113 
-11.825562,-21.942139,-14.038086,0.6682129,-0.18164062,0.63500977,-0.45593262,0.075805664,0.3383789,114 
-12.237549,-18.753052,-12.420654,0.66137695,-0.18481445,0.6455078,-0.45593262,0.07287598,0.33764648,115 
-12.10022,-12.60376,-10.101318,0.6530762,-0.17578125,0.64282227,-0.45336914,0.07287598,0.33764648,116 
-11.428833,-7.7819824,-5.1879883,0.6591797,-0.17871094,0.6291504,-0.45336914,0.07287598,0.33764648,117 
-8.148193,-10.223389,-5.126953,0.671875,-0.18774414,0.62353516,-0.45446777,0.07434082,0.33984375,118 
-3.0822754,-6.744385,-0.6866455,0.67700195,-0.19458008,0.62524414,-0.45446777,0.07434082,0.33984375,119 
-6.9885254,-6.0577393,-0.4272461,0.6923828,-0.20239258,0.6296387,-0.45446777,0.07287598,0.33618164,120 
-8.773804,-9.048462,-0.24414062,0.7050781,-0.19848633,0.6425781,-0.45373535,0.07287598,0.33618164,121 
-18.112183,-7.1258545,2.0446777,0.70532227,-0.2199707,0.66064453,-0.45373535,0.07287598,0.33618164,122 
-25.497437,-2.4871826,6.2408447,0.69555664,-0.23291016,0.66308594,-0.45410156,0.07287598,0.33691406,123 
-28.457642,1.1291504,4.638672,0.6867676,-0.22509766,0.63378906,-0.45410156,0.07287598,0.33691406,124 
-31.555176,1.8157959,4.0283203,0.6855469,-0.23510742,0.6113281,-0.45410156,0.0736084,0.33398438,125 
-46.00525,1.8310547,9.170532,0.6933594,-0.25341797,0.59277344,-0.45080566,0.0736084,0.33398438,126 
-62.072754,3.479004,4.0740967,0.6916504,-0.25683594,0.5917969,-0.45080566,0.0736084,0.33398438,127 
-79.39148,6.0424805,7.095337,0.67993164,-0.26293945,0.60498047,-0.45336914,0.06774902,0.32739258,128 
-92.315674,10.238647,7.827759,0.67089844,-0.23779297,0.62060547,-0.45336914,0.06774902,0.32739258,129 
-92.72766,17.105103,6.5460205,0.66845703,-0.17016602,0.61572266,-0.45043945,0.064819336,0.32702637,130 
-75.27161,15.853882,4.0740967,0.67333984,-0.103515625,0.60253906,-0.45043945,0.064819336,0.32702637,131 
-59.99756,11.291504,2.319336,0.6809082,-0.08886719,0.59399414,-0.45043945,0.064819336,0.32702637,132 
-45.85266,10.406494,0.33569336,0.66918945,-0.08154297,0.59228516,-0.45446777,0.06518555,0.32409668,133 
-41.96167,12.420654,0.9460449,0.66308594,-0.1027832,0.5905762,-0.45446777,0.06518555,0.32409668,134 
-41.82434,14.11438,1.4801025,0.6657715,-0.11425781,0.5866699,-0.4555664,0.061157227,0.31933594,135 
-36.56006,13.656616,-0.2593994,0.67211914,-0.107666016,0.5859375,-0.4555664,0.061157227,0.31933594,136 
-33.599854,13.015747,0.0,0.6821289,-0.103515625,0.58984375,-0.4555664,0.061157227,0.31933594,137 
-33.081055,8.758545,-0.15258789,0.6921387,-0.095703125,0.6027832,-0.45666504,0.06335449,0.32263184,138 
-31.921387,6.80542,1.1291504,0.6945801,-0.08618164,0.6201172,-0.45666504,0.06335449,0.32263184,139 
-26.504517,9.872437,1.3427734,0.69799805,-0.0625,0.63305664,-0.45373535,0.05859375,0.31604004,140 
-14.419556,9.536743,3.0670166,0.7043457,-0.03125,0.6296387,-0.45373535,0.05859375,0.31604004,141 
-8.361816,6.5307617,7.6446533,0.7097168,-0.022460938,0.6269531,-0.45373535,0.05859375,0.31604004,142 
-3.9978027,6.439209,9.490967,0.7060547,-0.022705078,0.6201172,-0.45593262,0.05822754,0.3178711,143 
-5.8288574,6.8511963,12.893677,0.6953125,-0.03173828,0.60668945,-0.45593262,0.05822754,0.3178711,144 
-3.479004,6.8359375,16.418457,0.6784668,-0.051757812,0.58325195,-0.45373535,0.059692383,0.31567383,145 
-4.4555664,7.4157715,17.959595,0.6647949,-0.083740234,0.5695801,-0.45373535,0.059692383,0.31567383,146 
-7.659912,11.642456,17.181396,0.65185547,-0.11987305,0.5605469,-0.45373535,0.059692383,0.31567383,147 
-11.688232,10.818481,17.303467,0.6472168,-0.15258789,0.5498047,-0.45812988,0.056396484,0.31896973,148 
-7.5531006,12.252808,15.808105,0.6464844,-0.16821289,0.54541016,-0.45812988,0.056396484,0.31896973,149 
-11.550903,18.508911,9.124756,0.63623047,-0.18481445,0.5583496,-0.4552002,0.056030273,0.31567383,150 
-13.000488,8.468628,10.528564,0.67578125,-0.20263672,0.57910156,-0.4552002,0.056030273,0.31567383,151 
-21.118164,6.591797,6.011963,0.6936035,-0.21875,0.61083984,-0.4552002,0.056030273,0.31567383,152 
-31.097412,7.0495605,2.0446777,0.7092285,-0.24194336,0.654541,-0.45703125,0.05053711,0.31860352,153 
-46.463013,6.072998,-2.9754639,0.72265625,-0.2614746,0.6970215,-0.45703125,0.05053711,0.31860352,154 
-56.243896,9.780884,-2.8533936,0.7375488,-0.2709961,0.72143555,-0.4584961,0.053466797,0.31604004,155 
-64.0564,8.94165,-5.4779053,0.7583008,-0.25976562,0.7277832,-0.4584961,0.053466797,0.31604004,156 
-71.30432,7.369995,-5.783081,0.7805176,-0.24658203,0.7312012,-0.4584961,0.053466797,0.31604004,157 
-79.46777,7.827759,-9.521484,0.80126953,-0.23168945,0.7390137,-0.45922852,0.048706055,0.3079834,158 
-95.047,8.865356,-6.713867,0.8149414,-0.2084961,0.7397461,-0.45922852,0.048706055,0.3079834,159 
-105.71289,6.729126,1.2054443,0.8354492,-0.16699219,0.72143555,-0.4621582,0.047607422,0.30615234,160 
-106.70471,4.5318604,7.0343018,0.8417969,-0.11035156,0.69873047,-0.4621582,0.047607422,0.30615234,161 
-89.2334,-4.837036,9.750366,0.8232422,-0.051757812,0.6706543,-0.4621582,0.047607422,0.30615234,162 
-64.971924,-13.290405,9.338379,0.795166,-0.016845703,0.6472168,-0.4621582,0.04321289,0.30981445,163 
-48.324585,-21.04187,9.490967,0.7597656,-0.026367188,0.6455078,-0.4621582,0.04321289,0.30981445,164 
-41.671753,-23.864746,10.345459,0.7207031,-0.04321289,0.6640625,-0.45776367,0.040649414,0.30249023,165 
-42.32788,-24.20044,11.184692,0.6933594,-0.04272461,0.6816406,-0.45776367,0.040649414,0.30249023,166 
-45.318604,-24.429321,13.809204,0.68237305,-0.026367188,0.69677734,-0.45776367,0.040649414,0.30249023,167 
-49.1333,-26.824951,18.585205,0.6813965,0.005126953,0.70092773,-0.4625244,0.037719727,0.29992676,168 
-50.1709,-31.00586,24.82605,0.6899414,0.032714844,0.701416,-0.4625244,0.037719727,0.29992676,169 
-53.726196,-36.865234,29.525757,0.69555664,0.040283203,0.6972656,-0.4552002,0.036987305,0.3043213,170 
-55.404663,-37.65869,29.037476,0.66674805,0.009521484,0.66845703,-0.4552002,0.036987305,0.3043213,172 
-48.553467,-33.325195,27.526855,0.65063477,0.018798828,0.65527344,-0.46069336,0.029663086,0.28564453,173 
-39.82544,-34.51538,26.97754,0.6484375,0.044433594,0.6542969,-0.46069336,0.029663086,0.28564453,174 
-34.606934,-36.30066,26.260376,0.6623535,0.048095703,0.6821289,-0.45703125,0.028564453,0.2874756,175 
-33.2489,-34.37805,30.807495,0.66625977,0.049560547,0.71435547,-0.45703125,0.028564453,0.2874756,176 
-31.158447,-32.53174,35.308838,0.6665039,0.06323242,0.72436523,-0.45703125,0.028564453,0.2874756,177 
-28.762817,-31.646729,45.135498,0.67871094,0.06958008,0.71240234,-0.45629883,0.026000977,0.28710938,178 
-32.089233,-38.864136,51.54419,0.6970215,0.044433594,0.6936035,-0.45629883,0.026000977,0.28710938,179 
-47.286987,-44.25049,56.18286,0.7006836,-0.025634766,0.68310547,-0.4555664,0.019042969,0.28381348,180 
-72.08252,-52.93274,61.24878,0.6936035,-0.103027344,0.68969727,-0.4555664,0.019042969,0.28381348,181 
-103.28674,-58.85315,64.63623,0.6928711,-0.13476562,0.7307129,-0.4555664,0.019042969,0.28381348,182 
-138.50403,-71.16699,63.88855,0.70043945,-0.15332031,0.75683594,-0.45336914,0.010253906,0.2775879,183 
-171.2799,-80.78003,67.42859,0.7006836,-0.1418457,0.7717285,-0.45336914,0.010253906,0.2775879,184 
-195.96863,-88.37891,70.22095,0.69311523,-0.09033203,0.7832031,-0.45263672,-0.005859375,0.26660156,185 
-217.30042,-94.23828,74.89014,0.6826172,-0.020019531,0.78808594,-0.45263672,-0.005859375,0.26660156,186 
-229.79736,-98.17505,81.25305,0.6711426,0.052490234,0.76538086,-0.45263672,-0.005859375,0.26660156,187 
-236.54175,-103.69873,87.1582,0.65625,0.10595703,0.7092285,-0.45336914,-0.020507812,0.25708008,188 
-231.38428,-102.27966,91.537476,0.63061523,0.17041016,0.6442871,-0.45336914,-0.020507812,0.25708008,189 
-208.20618,-97.0459,90.24048,0.60913086,0.2722168,0.59155273,-0.4522705,-0.041381836,0.24865723,190 
-166.68701,-93.75,88.33313,0.59643555,0.40551758,0.5571289,-0.4522705,-0.041381836,0.24865723,191 
-117.84363,-89.55383,83.740234,0.5852051,0.55493164,0.54418945,-0.4522705,-0.041381836,0.24865723,192 
-63.201904,-85.1593,82.01599,0.5686035,0.6513672,0.546875,-0.44934082,-0.05529785,0.24645996,193 
-11.886597,-79.58984,78.01819,0.5422363,0.6867676,0.56103516,-0.44934082,-0.05529785,0.24645996,194 
25.283813,-74.539185,68.984985,0.5048828,0.6623535,0.6062012,-0.44677734,-0.057861328,0.24023438,195 
54.29077,-63.034058,56.137085,0.46655273,0.6118164,0.67285156,-0.44677734,-0.057861328,0.24023438,196 
80.703735,-45.898438,43.319702,0.4248047,0.57666016,0.73095703,-0.44677734,-0.057861328,0.24023438,197 
96.710205,-31.600952,33.798218,0.39697266,0.54345703,0.7729492,-0.44787598,-0.061157227,0.23657227,198 
108.01697,-12.069702,29.266357,0.37695312,0.5007324,0.8132324,-0.44787598,-0.061157227,0.23657227,199 
116.39404,6.0577393,31.799316,0.3671875,0.46801758,0.8352051,-0.44128418,-0.057128906,0.23254395,200 
125.442505,20.050049,34.91211,0.37890625,0.4404297,0.84375,-0.44128418,-0.057128906,0.23254395,201 
132.30896,32.62329,32.51648,0.40112305,0.40527344,0.85131836,-0.44128418,-0.057128906,0.23254395,202 
140.65552,37.93335,26.45874,0.421875,0.34472656,0.8527832,-0.44421387,-0.0501709,0.23291016,203 
133.42285,45.97473,27.511597,0.43408203,0.25732422,0.84887695,-0.44421387,-0.0501709,0.23291016,204 
116.91284,57.525635,28.289795,0.43969727,0.18969727,0.84155273,-0.4420166,-0.04284668,0.24572754,205 
102.95105,64.86511,26.84021,0.44750977,0.16674805,0.83154297,-0.4420166,-0.04284668,0.24572754,206 
95.67261,69.03076,20.339966,0.46289062,0.17236328,0.82543945,-0.4420166,-0.04284668,0.24572754,207 
87.53967,64.46838,15.060425,0.47998047,0.17114258,0.8171387,-0.44384766,-0.03881836,0.24902344,208 
84.732056,59.661865,12.22229,0.4975586,0.17333984,0.8093262,-0.44384766,-0.03881836,0.24902344,209 
80.97839,50.430298,10.147095,0.5163574,0.17871094,0.796875,-0.4515381,-0.036987305,0.24902344,210 
75.46997,40.405273,7.9193115,0.5283203,0.17504883,0.7932129,-0.4515381,-0.036987305,0.24902344,211 
70.34302,33.096313,8.071899,0.53100586,0.15698242,0.7980957,-0.4515381,-0.036987305,0.24902344,212 
63.293457,29.220581,5.5389404,0.5280762,0.14672852,0.8054199,-0.4515381,-0.030029297,0.25524902,213 
50.811768,26.046753,3.036499,0.5305176,0.13427734,0.80908203,-0.4515381,-0.030029297,0.25524902,214 
37.094116,21.026611,0.76293945,0.53930664,0.12646484,0.80737305,-0.45300293,-0.026000977,0.25964355,215 
34.89685,17.684937,-2.105713,0.54418945,0.13867188,0.8100586,-0.45300293,-0.026000977,0.25964355,216 
34.210205,18.463135,-7.1411133,0.54907227,0.16137695,0.8066406,-0.45300293,-0.026000977,0.25964355,217 
35.354614,16.479492,-13.397217,0.5576172,0.1694336,0.80029297,-0.45336914,-0.0234375,0.25671387,218 
31.204224,15.975952,-17.929077,0.5629883,0.16748047,0.7910156,-0.45336914,-0.0234375,0.25671387,219 
25.024414,14.99939,-20.095825,0.5734863,0.16113281,0.7836914,-0.4522705,-0.022338867,0.2680664,220 
22.872925,14.862061,-19.515991,0.57836914,0.14746094,0.7746582,-0.4522705,-0.022338867,0.2680664,221 
9.536743,16.952515,-17.501831,0.5859375,0.14233398,0.76000977,-0.4522705,-0.022338867,0.2680664,222 
-1.0070801,14.404297,-16.433716,0.5961914,0.12963867,0.74121094,-0.45043945,-0.022705078,0.2647705,223 
-8.392334,12.176514,-14.678955,0.59643555,0.10620117,0.7363281,-0.45043945,-0.022705078,0.2647705,224 
-16.235352,10.1623535,-10.498047,0.5930176,0.08178711,0.732666,-0.45336914,-0.021606445,0.25561523,225 
-19.77539,10.269165,-7.293701,0.5908203,0.08081055,0.7414551,-0.45336914,-0.021606445,0.25561523,226 
-17.990112,12.771606,-11.886597,0.59814453,0.10522461,0.7507324,-0.45336914,-0.021606445,0.25561523,227 
-19.699097,6.652832,-12.969971,0.6152344,0.14038086,0.7561035,-0.45373535,-0.021240234,0.25964355,228 
-14.099121,4.119873,-13.320923,0.6188965,0.15332031,0.75805664,-0.45373535,-0.021240234,0.25964355,229 
-13.931274,4.3029785,-12.863159,0.6166992,0.15527344,0.7541504,-0.45446777,-0.023803711,0.25964355,230 
-13.73291,3.3874512,-13.031006,0.6179199,0.16308594,0.75146484,-0.45446777,-0.023803711,0.25964355,231 
-14.328003,0.15258789,-12.832642,0.61987305,0.16674805,0.7529297,-0.45446777,-0.023803711,0.25964355,232 
-15.777588,-4.2419434,-12.9852295,0.62353516,0.17773438,0.76171875,-0.4584961,-0.021606445,0.2541504,233 
-17.120361,-9.811401,-13.214111,0.6220703,0.1772461,0.77075195,-0.4584961,-0.021606445,0.2541504,234 
-21.1792,-13.565063,-14.007568,0.6171875,0.18066406,0.78100586,-0.4552002,-0.021606445,0.25964355,235 
-24.139404,-14.389038,-16.723633,0.6098633,0.18603516,0.78149414,-0.4552002,-0.021606445,0.25964355,236 
-25.405884,-12.863159,-20.233154,0.595459,0.19946289,0.77734375,-0.4552002,-0.021606445,0.25964355,237 
-23.910522,-10.482788,-19.607544,0.5800781,0.20800781,0.7692871,-0.45666504,-0.0234375,0.2578125,238 
-23.452759,-9.3688965,-24.749756,0.56933594,0.20483398,0.7631836,-0.45666504,-0.0234375,0.2578125,239 
-21.347046,-8.331299,-24.108887,0.5690918,0.21166992,0.7636719,-0.4555664,-0.02746582,0.2574463,240 
