GX, GY, GZ, AX, AY, AZ, MX, MY, MZ, TS, tags
0.8392334,2.8381348,-1.1138916,0.4519043,0.48046875,0.7180176,-0.33068848,-0.3248291,0.2816162,96 
1.1749268,3.0822754,-1.0070801,0.4519043,0.48217773,0.7180176,-0.3317871,-0.32629395,0.2808838,97 
1.373291,2.7618408,-1.2817383,0.45166016,0.48291016,0.7182617,-0.3317871,-0.32629395,0.2808838,98 
1.0528564,2.5634766,-1.373291,0.45092773,0.48388672,0.71899414,-0.3317871,-0.32629395,0.2808838,99 
1.1749268,2.5634766,-1.2817383,0.45043945,0.48535156,0.7199707,-0.3314209,-0.32629395,0.27648926,100 
1.5563965,3.112793,-1.4038086,0.45092773,0.4855957,0.7194824,-0.3314209,-0.32629395,0.27648926,101 
0.44250488,2.7313232,-1.0681152,0.45141602,0.484375,0.71899414,-0.32958984,-0.32702637,0.28051758,102 
0.091552734,2.380371,-0.7019043,0.4519043,0.48266602,0.71875,-0.32958984,-0.32702637,0.28051758,103 
0.0,1.7547607,-0.88500977,0.45092773,0.48242188,0.71875,-0.32958984,-0.32702637,0.28051758,104 
-0.4272461,2.4414062,-0.9613037,0.44921875,0.48339844,0.71875,-0.32995605,-0.32739258,0.28344727,105 
0.289917,2.319336,-1.1291504,0.4477539,0.484375,0.71875,-0.32995605,-0.32739258,0.28344727,106 
0.5950928,3.479004,-1.2664795,0.4477539,0.48510742,0.71875,-0.3310547,-0.32958984,0.28198242,107 
0.5340576,3.250122,-1.2817383,0.44799805,0.4855957,0.7192383,-0.3310547,-0.32958984,0.28198242,108 
1.4801025,3.8146973,-1.739502,0.44873047,0.48608398,0.7194824,-0.3310547,-0.32958984,0.28198242,109 
1.7242432,3.7384033,-1.6326904,0.44970703,0.4873047,0.7194824,-0.33032227,-0.32739258,0.28271484,110 
1.9836426,3.2958984,-1.5869141,0.45166016,0.4880371,0.7207031,-0.33032227,-0.32739258,0.28271484,111 
1.6784668,3.3721924,-1.4648438,0.4519043,0.4873047,0.7211914,-0.3317871,-0.32739258,0.28344727,112 
1.8463135,3.3721924,-1.2359619,0.4519043,0.48632812,0.720459,-0.3317871,-0.32739258,0.28344727,113 
1.5869141,3.829956,-1.083374,0.45141602,0.48461914,0.71972656,-0.3317871,-0.32739258,0.28344727,114 
1.0528564,3.90625,-0.88500977,0.45092773,0.48242188,0.71899414,-0.32922363,-0.328125,0.28015137,115 
1.0375977,3.768921,-1.0986328,0.4506836,0.4802246,0.71850586,-0.32922363,-0.328125,0.28015137,116 
0.45776367,3.4484863,-0.7019043,0.45043945,0.4790039,0.71728516,-0.32922363,-0.3277588,0.28674316,117 
0.61035156,3.5858154,-0.9460449,0.45117188,0.4790039,0.71606445,-0.32922363,-0.3277588,0.28674316,118 
0.289917,2.8686523,-0.8087158,0.45092773,0.47998047,0.7163086,-0.32922363,-0.3277588,0.28674316,119 
0.8239746,2.9754639,-0.88500977,0.4506836,0.48120117,0.71728516,-0.33068848,-0.3251953,0.2816162,120 
0.9765625,3.0059814,-1.1749268,0.4506836,0.48242188,0.7182617,-0.33068848,-0.3251953,0.2816162,121 
0.9460449,2.8533936,-1.3427734,0.44995117,0.48388672,0.71875,-0.3317871,-0.3248291,0.28271484,122 
0.579834,2.960205,-1.2359619,0.45043945,0.484375,0.71875,-0.3317871,-0.3248291,0.28271484,123 
0.869751,2.960205,-1.1138916,0.45092773,0.484375,0.71972656,-0.3317871,-0.3248291,0.28271484,124 
0.869751,2.8076172,-1.0986328,0.4501953,0.48364258,0.7192383,-0.3317871,-0.3244629,0.27978516,125 
0.579834,2.4871826,-1.373291,0.44970703,0.48364258,0.7194824,-0.3317871,-0.3244629,0.27978516,126 
0.19836426,2.960205,-1.5258789,0.4489746,0.48388672,0.7192383,-0.33032227,-0.32299805,0.28015137,127 
0.5187988,3.768921,-0.9460449,0.44848633,0.48461914,0.7194824,-0.33032227,-0.32299805,0.28015137,128 
0.5187988,3.0059814,-1.6021729,0.44921875,0.48510742,0.71875,-0.33032227,-0.32299805,0.28015137,129 
0.8392334,3.5705566,-1.4038086,0.44970703,0.48583984,0.7192383,-0.32629395,-0.32666016,0.27575684,130 
1.0681152,3.189087,-1.6174316,0.44921875,0.48632812,0.71972656,-0.32629395,-0.32666016,0.27575684,131 
1.1749268,3.4942627,-1.3580322,0.4482422,0.48657227,0.720459,-0.32922363,-0.32592773,0.2849121,132 
1.0375977,3.7231445,-1.1749268,0.44873047,0.48608398,0.720459,-0.32922363,-0.32592773,0.2849121,133 
1.083374,3.6621094,-1.2359619,0.44873047,0.4855957,0.71972656,-0.32922363,-0.32592773,0.2849121,134 
0.5340576,7.675171,-1.2817383,0.4494629,0.48535156,0.7192383,-0.32885742,-0.32409668,0.2816162,135 
0.61035156,3.753662,-1.1291504,0.4494629,0.48535156,0.71850586,-0.32885742,-0.32409668,0.2816162,136 
1.4648438,3.6773682,-1.3427734,0.4494629,0.48510742,0.71850586,-0.3284912,-0.32629395,0.28564453,137 
1.5563965,3.4484863,-1.0986328,0.44970703,0.48583984,0.7192383,-0.3284912,-0.32629395,0.28564453,138 
1.663208,3.479004,-0.9613037,0.4506836,0.48535156,0.71899414,-0.3284912,-0.32629395,0.28564453,139 
1.663208,3.40271,-1.0681152,0.4506836,0.48486328,0.71850586,-0.32739258,-0.32666016,0.2808838,140 
1.3427734,2.89917,-1.5258789,0.45117188,0.48388672,0.7180176,-0.32739258,-0.32666016,0.2808838,141 
1.2359619,3.0212402,-0.9765625,0.4506836,0.48266602,0.7175293,-0.328125,-0.3277588,0.28344727,142 
1.2512207,2.9144287,-0.8087158,0.45092773,0.48095703,0.71728516,-0.328125,-0.3277588,0.28344727,143 
0.18310547,3.1280518,-1.4038086,0.45117188,0.4802246,0.71777344,-0.328125,-0.3277588,0.368042,144 
0.2593994,3.112793,-1.1291504,0.45141602,0.48046875,0.7180176,-0.33032227,-0.3248291,0.274292,145 
-0.030517578,2.5939941,-1.2512207,0.4519043,0.4814453,0.7175293,-0.33032227,-0.3248291,0.274292,146 
0.19836426,2.8686523,-1.2817383,0.45166016,0.48291016,0.7182617,-0.3284912,-0.3244629,0.28381348,147 
0.4119873,2.3498535,-1.4190674,0.45141602,0.48413086,0.71899414,-0.3284912,-0.3244629,0.28381348,148 
0.77819824,3.112793,-1.6479492,0.45092773,0.48510742,0.7199707,-0.3284912,-0.3244629,0.28381348,149 
0.869751,2.9754639,-1.373291,0.45141602,0.4855957,0.720459,-0.32556152,-0.3248291,0.27941895,150 
0.9918213,3.1280518,-1.3885498,0.4519043,0.48510742,0.71972656,-0.32556152,-0.3248291,0.27941895,151 
0.9460449,3.1585693,-1.5106201,0.45166016,0.484375,0.71899414,-0.3277588,-0.3277588,0.27868652,152 
0.6866455,3.463745,-1.0986328,0.45166016,0.48364258,0.7194824,-0.3277588,-0.3277588,0.27868652,153 
1.0223389,3.0517578,-1.1444092,0.45141602,0.48364258,0.7194824,-0.3277588,-0.3277588,0.27868652,154 
1.2207031,3.326416,-1.5716553,0.4506836,0.48388672,0.7194824,-0.32702637,-0.32409668,0.28015137,155 
1.4038086,3.1585693,-1.5563965,0.45092773,0.48486328,0.7199707,-0.32702637,-0.32409668,0.28015137,156 
1.449585,3.2958984,-1.9378662,0.45043945,0.48486328,0.72021484,-0.32922363,-0.32556152,0.28637695,157 
1.876831,3.4942627,-1.5869141,0.4506836,0.484375,0.7194824,-0.32922363,-0.32556152,0.28637695,158 
1.9226074,3.0975342,-1.2359619,0.45043945,0.48339844,0.71972656,-0.32922363,-0.32556152,0.37243652,159 
1.5258789,3.0975342,-1.3122559,0.4501953,0.4819336,0.7192383,-0.32373047,-0.3251953,0.27868652,160 
1.2817383,3.5858154,-1.4953613,0.45043945,0.48095703,0.71899414,-0.32373047,-0.3251953,0.27868652,161 
0.5187988,2.6855469,-1.1444092,0.4506836,0.4802246,0.71899414,-0.32739258,-0.3248291,0.28234863,162 
-0.5340576,2.609253,-0.93078613,0.45141602,0.47924805,0.71899414,-0.32739258,-0.3248291,0.28234863,163 
-1.0681152,2.1514893,-1.1901855,0.45043945,0.47924805,0.71899414,-0.32739258,-0.3248291,0.28234863,164 
-0.88500977,2.609253,-0.64086914,0.4494629,0.4814453,0.7194824,-0.328125,-0.3277588,0.27539062,165 
-0.5340576,3.0822754,-1.2512207,0.44848633,0.48486328,0.7194824,-0.328125,-0.3277588,0.27539062,166 
0.6713867,4.4403076,-1.2207031,0.44702148,0.49023438,0.7207031,-0.32629395,-0.3251953,0.28015137,168 
1.7852783,4.1046143,-1.449585,0.44970703,0.48901367,0.7207031,-0.328125,-0.3215332,0.2816162,171 
1.5411377,3.6315918,-1.0986328,0.4506836,0.4873047,0.7194824,-0.32995605,-0.32739258,0.28344727,172 
1.3427734,3.479004,-1.4190674,0.45117188,0.48510742,0.71899414,-0.32995605,-0.32739258,0.28344727,173 
1.1444092,3.829956,-0.8239746,0.4506836,0.48291016,0.7180176,-0.32995605,-0.32556152,0.2775879,174 
0.9460449,3.9367676,-0.6713867,0.44970703,0.4814453,0.7175293,-0.3277588,-0.32556152,0.2775879,175 
1.0070801,4.1046143,-1.2512207,0.44995117,0.48120117,0.717041,-0.3277588,-0.32556152,0.2775879,176 
0.7019043,4.5166016,-1.1444092,0.45092773,0.48095703,0.71728516,-0.3284912,-0.3284912,0.2845459,177 
0.869751,3.7841797,-1.3122559,0.45239258,0.48120117,0.717041,-0.3284912,-0.3284912,0.2845459,178 
0.9918213,3.3569336,-1.1749268,0.45336914,0.48168945,0.71655273,-0.3284912,-0.3284912,0.2845459,179 
0.90026855,2.7008057,-1.2664795,0.45336914,0.48242188,0.717041,-0.3251953,-0.32702637,0.28344727,180 
0.74768066,3.2043457,-1.0070801,0.45336914,0.48291016,0.71728516,-0.3251953,-0.32702637,0.28344727,181 
0.45776367,2.8381348,-1.083374,0.45239258,0.4831543,0.71777344,-0.32739258,-0.32702637,0.2841797,182 
0.90026855,2.960205,-1.1138916,0.45263672,0.4831543,0.7182617,-0.32739258,-0.32702637,0.2841797,183 
0.9613037,2.609253,-1.0986328,0.4519043,0.48291016,0.71899414,-0.32739258,-0.32702637,0.36950684,184 
0.16784668,2.8381348,-1.2664795,0.45166016,0.48217773,0.7194824,-0.3277588,-0.3277588,0.27575684,185 
0.36621094,2.89917,-1.6326904,0.45092773,0.48120117,0.7192383,-0.3277588,-0.3277588,0.27575684,186 
0.48828125,3.7384033,-1.5716553,0.45043945,0.48095703,0.7192383,-0.32922363,-0.32409668,0.27978516,187 
0.030517578,3.7994385,-1.9989014,0.4506836,0.4807129,0.7194824,-0.32922363,-0.32409668,0.27978516,188 
-0.24414062,3.692627,-1.7242432,0.4506836,0.48168945,0.7192383,-0.32922363,-0.32299805,0.2775879,189 
-0.4119873,3.4484863,-1.6174316,0.4506836,0.48339844,0.71899414,-0.32556152,-0.32299805,0.2775879,190 
-0.33569336,3.5095215,-1.2817383,0.4501953,0.48486328,0.7194824,-0.32556152,-0.32299805,0.2775879,191 
-0.015258789,3.8146973,-1.4648438,0.4501953,0.48608398,0.7192383,-0.32922363,-0.3251953,0.28125,192 
0.30517578,3.4179688,-0.91552734,0.4494629,0.4868164,0.7199707,-0.32922363,-0.3251953,0.28125,193 
0.5645752,3.7994385,-1.0528564,0.44873047,0.4868164,0.71972656,-0.32922363,-0.3251953,0.2783203,194 
0.5493164,3.5705566,-1.0223389,0.4494629,0.4868164,0.7194824,-0.3284912,-0.32299805,0.2783203,195 
0.5493164,3.2348633,-1.4343262,0.44995117,0.48657227,0.71875,-0.3284912,-0.32299805,0.2783203,196 
1.0223389,3.3111572,-0.9460449,0.45043945,0.48632812,0.7182617,-0.32995605,-0.32336426,0.28564453,197 
1.373291,3.829956,-1.1138916,0.45141602,0.48632812,0.71850586,-0.32995605,-0.32336426,0.28564453,198 
1.1749268,3.6010742,-1.0986328,0.45141602,0.4868164,0.71899414,-0.32995605,-0.32336426,0.28125,199 
1.2969971,3.9520264,-1.2664795,0.4506836,0.48608398,0.7199707,-0.32739258,-0.32556152,0.28125,200 
1.083374,3.9520264,-1.1749268,0.45092773,0.48583984,0.7207031,-0.32739258,-0.32556152,0.28125,201 
1.2817383,3.3721924,-1.0681152,0.45214844,0.48461914,0.72021484,-0.33032227,-0.3251953,0.28308105,202 
0.579834,3.4484863,-1.083374,0.4519043,0.48266602,0.71899414,-0.33032227,-0.3251953,0.28308105,203 
0.15258789,3.5247803,-0.9918213,0.45239258,0.4819336,0.71850586,-0.32592773,-0.3248291,0.28015137,204 
-0.10681152,3.6315918,-1.0375977,0.45214844,0.48168945,0.7180176,-0.32592773,-0.3248291,0.28015137,205 
-0.076293945,3.6621094,-1.449585,0.45239258,0.48168945,0.7175293,-0.32592773,-0.3248291,0.28015137,206 
-0.045776367,3.7994385,-1.5258789,0.453125,0.4814453,0.7175293,-0.3244629,-0.3277588,0.2841797,207 
-0.32043457,4.0130615,-1.8920898,0.45361328,0.48242188,0.7175293,-0.3244629,-0.3277588,0.2841797,208 
0.2746582,3.189087,-1.3122559,0.45385742,0.48364258,0.71777344,-0.3244629,-0.32592773,0.27905273,209 
0.2593994,3.5247803,-1.6021729,0.45361328,0.48413086,0.71777344,-0.32666016,-0.32592773,0.27905273,210 
-3.8452148,4.0283203,-1.5869141,0.45239258,0.48510742,0.717041,-0.32666016,-0.32592773,0.27905273,211 
-3.8604736,3.4332275,-1.6479492,0.45239258,0.4855957,0.717041,-0.32958984,-0.32739258,0.27868652,212 
0.10681152,3.8604736,-1.5869141,0.45214844,0.48608398,0.71777344,-0.32958984,-0.32739258,0.27868652,213 
0.38146973,4.79126,-1.8920898,0.45214844,0.48632812,0.7182617,-0.32958984,-0.3251953,0.2775879,214 
0.091552734,4.3182373,-1.2969971,0.45263672,0.48657227,0.71777344,-0.328125,-0.3251953,0.2775879,215 
0.24414062,3.250122,-1.3427734,0.45336914,0.48608398,0.7175293,-0.328125,-0.3251953,0.2775879,216 
0.21362305,3.0975342,-1.083374,0.453125,0.48339844,0.7150879,-0.32958984,-0.32666016,0.28198242,219 
0.061035156,3.250122,-0.9765625,0.45263672,0.48388672,0.7155762,-0.32958984,-0.32666016,0.28198242,220 
0.4272461,2.6397705,-0.9613037,0.45214844,0.48388672,0.71606445,-0.32958984,-0.32666016,0.28198242,221 
-0.10681152,2.89917,-1.1444092,0.45166016,0.48388672,0.71655273,-0.328125,-0.3251953,0.28015137,222 
-0.21362305,2.8686523,-1.3885498,0.45214844,0.48364258,0.7175293,-0.328125,-0.3251953,0.28015137,223 
-0.18310547,2.5634766,-1.3275146,0.4519043,0.48413086,0.71777344,-0.32885742,-0.32666016,0.2746582,224 
-1.2664795,2.9754639,-1.0681152,0.45141602,0.48413086,0.71777344,-0.32885742,-0.32666016,0.2746582,225 
-1.4343262,3.1433105,-1.083374,0.45141602,0.4855957,0.7180176,-0.32885742,-0.32666016,0.2746582,226 
-1.3427734,3.4332275,-0.9765625,0.45043945,0.48706055,0.71777344,-0.3317871,-0.3251953,0.28125,227 
-1.0223389,2.243042,-0.90026855,0.4506836,0.48901367,0.7182617,-0.3317871,-0.3251953,0.28125,228 
-0.22888184,3.0975342,-0.8239746,0.4494629,0.49072266,0.71899414,-0.328125,-0.32702637,0.28308105,229 
0.045776367,3.7231445,-1.3275146,0.44726562,0.49145508,0.7194824,-0.328125,-0.32702637,0.28308105,230 
1.0223389,4.8980713,-1.8005371,0.44580078,0.49121094,0.71972656,-0.328125,-0.32702637,0.28308105,231 
1.159668,5.6762695,-2.105713,0.44750977,0.48999023,0.71899414,-0.33032227,-0.32556152,0.28271484,232 
1.373291,6.0272217,-1.8920898,0.4501953,0.48754883,0.71777344,-0.33032227,-0.32556152,0.28271484,233 
0.8544922,5.004883,-1.6479492,0.45336914,0.48486328,0.7163086,-0.32702637,-0.32373047,0.28051758,234 
0.16784668,4.119873,-1.1749268,0.45507812,0.48364258,0.7155762,-0.32702637,-0.32373047,0.28051758,235 
-0.10681152,3.768921,-0.9765625,0.4555664,0.48388672,0.71484375,-0.32702637,-0.32373047,0.28051758,236 
0.030517578,4.0740967,-1.2359619,0.4543457,0.48364258,0.71435547,-0.32885742,-0.32592773,0.2816162,237 
0.15258789,4.470825,-0.8544922,0.45410156,0.48364258,0.71435547,-0.32885742,-0.32592773,0.2816162,238 
0.015258789,3.768921,-1.4801025,0.45458984,0.48461914,0.7141113,-0.3277588,-0.32373047,0.2783203,239 
0.33569336,4.135132,-1.083374,0.45507812,0.48486328,0.7138672,-0.3277588,-0.32373047,0.2783203,240 
0.21362305,3.7231445,-1.1444092,0.45532227,0.48583984,0.71362305,-0.3277588,-0.32373047,0.2783203,241 
-0.18310547,3.2806396,-1.083374,0.45629883,0.48583984,0.71362305,-0.3314209,-0.32666016,0.2849121,242 
0.74768066,3.4179688,-1.1138916,0.4555664,0.48657227,0.71435547,-0.3314209,-0.32666016,0.2849121,243 
0.93078613,3.2806396,-1.4648438,0.45507812,0.48706055,0.71533203,-0.32702637,-0.3248291,0.28601074,244 
1.0528564,3.6773682,-1.2207031,0.45385742,0.48754883,0.7155762,-0.32702637,-0.3248291,0.28601074,245 
1.1749268,3.8146973,-2.090454,0.45288086,0.48706055,0.7158203,-0.32702637,-0.3248291,0.28601074,246 
0.39672852,4.333496,-2.1514893,0.45263672,0.48583984,0.7150879,-0.32592773,-0.3277588,0.28344727,247 
0.22888184,4.348755,-2.029419,0.453125,0.48486328,0.7145996,-0.32592773,-0.3277588,0.28344727,248 
-0.21362305,3.8146973,-2.1362305,0.4543457,0.48413086,0.71362305,-0.32592773,-0.32666016,0.2841797,249 
-0.21362305,3.9978027,-1.953125,0.45532227,0.48339844,0.7138672,-0.32592773,-0.32666016,0.2841797,250 
0.030517578,3.540039,-1.4801025,0.4560547,0.484375,0.71362305,-0.32592773,-0.32666016,0.2841797,251 
0.061035156,3.6010742,-1.2817383,0.45581055,0.48535156,0.7141113,-0.3284912,-0.32629395,0.28674316,252 
0.289917,3.6315918,-1.2359619,0.45483398,0.48632812,0.71435547,-0.3284912,-0.32629395,0.28674316,253 
0.30517578,3.9672852,-1.159668,0.45410156,0.4873047,0.7150879,-0.32702637,-0.32629395,0.28234863,254 
-3.829956,3.4332275,-1.2664795,0.45410156,0.48754883,0.7155762,-0.32702637,-0.32629395,0.28234863,255 
0.4272461,3.8909912,-1.0070801,0.45361328,0.48779297,0.7167969,-0.32702637,-0.32629395,0.28234863,0 
0.33569336,3.768921,-1.0070801,0.45288086,0.48779297,0.71655273,-0.32958984,-0.32739258,0.28674316,1 
-0.015258789,4.196167,-1.0223389,0.45214844,0.4880371,0.7158203,-0.32958984,-0.32739258,0.28674316,2 
0.45776367,3.8146973,-1.159668,0.45214844,0.48876953,0.7158203,-0.32885742,-0.32592773,0.28344727,3 
0.8087158,3.6468506,-1.0986328,0.45263672,0.4885254,0.71606445,-0.32885742,-0.32592773,0.28344727,4 
0.36621094,3.8604736,-1.159668,0.45263672,0.48901367,0.7150879,-0.32885742,-0.32592773,0.28344727,5 
0.39672852,3.9672852,-1.4343262,0.453125,0.48828125,0.7141113,-0.32739258,-0.32666016,0.2849121,6 
0.47302246,4.1656494,-1.3122559,0.45239258,0.4885254,0.71362305,-0.32739258,-0.32666016,0.2849121,7 
0.76293945,4.2419434,-1.4343262,0.45336914,0.48876953,0.71313477,-0.32666016,-0.32629395,0.2845459,8 
1.2054443,3.8452148,-1.8310547,0.45336914,0.48876953,0.71313477,-0.32666016,-0.32629395,0.2845459,9 
0.91552734,4.3029785,-1.7700195,0.45385742,0.48876953,0.71362305,-0.32666016,-0.32629395,0.2845459,10 
0.8392334,4.5318604,-1.2969971,0.45507812,0.48901367,0.7141113,-0.32922363,-0.32556152,0.28051758,11 
0.5645752,4.119873,-1.4953613,0.4555664,0.48779297,0.7141113,-0.32922363,-0.32556152,0.28051758,12 
0.4119873,3.692627,-1.4648438,0.4567871,0.48657227,0.7141113,-0.3251953,-0.32409668,0.28271484,13 
0.5340576,3.7078857,-1.2817383,0.45654297,0.48583984,0.7138672,-0.3251953,-0.32409668,0.28271484,14 
0.6561279,3.8604736,-1.6479492,0.45629883,0.48510742,0.7133789,-0.3251953,-0.32409668,0.28271484,15 
-0.18310547,3.8757324,-1.373291,0.4560547,0.48535156,0.71313477,-0.32739258,-0.32556152,0.28198242,16 
3.8909912,3.753662,-1.5869141,0.45629883,0.48608398,0.7126465,-0.32739258,-0.32556152,0.28198242,17 
-0.18310547,3.982544,-1.876831,0.45629883,0.48632812,0.71362305,-0.32958984,-0.32666016,0.28125,18 
-0.12207031,3.9367676,-1.4648438,0.45654297,0.48706055,0.71313477,-0.32958984,-0.32666016,0.28125,19 
0.36621094,3.3111572,-1.4190674,0.4572754,0.48779297,0.7128906,-0.32958984,-0.32666016,0.28125,20 
0.93078613,3.3569336,-1.3275146,0.45751953,0.4880371,0.71313477,-0.32739258,-0.32702637,0.288208,21 
1.0223389,3.6621094,-1.4648438,0.4567871,0.48828125,0.71240234,-0.32739258,-0.32702637,0.288208,22 
0.869751,3.7384033,-1.2054443,0.45629883,0.48779297,0.7116699,-0.32409668,-0.328125,0.2874756,23 
1.2664795,3.5552979,-1.2664795,0.45629883,0.48754883,0.7114258,-0.32409668,-0.328125,0.2874756,24 
1.3580322,3.0670166,-1.1291504,0.4560547,0.48706055,0.7114258,-0.32409668,-0.328125,0.2874756,25 
1.0528564,3.2348633,-1.2817383,0.4560547,0.48583984,0.7116699,-0.32702637,-0.32739258,0.28857422,26 
1.5106201,2.8839111,-0.9765625,0.45629883,0.48486328,0.7121582,-0.32702637,-0.32739258,0.28857422,27 
0.62561035,1.663208,-1.4953613,0.45581055,0.48486328,0.71240234,-0.3251953,-0.3284912,0.28271484,28 
0.48828125,2.39563,-1.4801025,0.4555664,0.48535156,0.7126465,-0.3251953,-0.3284912,0.28271484,29 
-0.045776367,3.0212402,-1.5563965,0.45507812,0.48583984,0.7133789,-0.3251953,-0.3284912,0.28271484,30 
-1.2664795,2.6855469,-1.2359619,0.45581055,0.48632812,0.7138672,-0.32556152,-0.32409668,0.288208,31 
-0.7019043,2.2125244,-1.7547607,0.45654297,0.48779297,0.7141113,-0.32556152,-0.32409668,0.288208,32 
-0.579834,2.39563,-1.0375977,0.4560547,0.48999023,0.71435547,-0.32263184,-0.3284912,0.2841797,33 
0.0,2.6397705,-0.9460449,0.45483398,0.49267578,0.7145996,-0.32263184,-0.3284912,0.2841797,34 
0.9613037,3.479004,-0.76293945,0.45336914,0.4934082,0.7150879,-0.32263184,-0.3284912,0.2841797,35 
1.3885498,3.6468506,-0.9765625,0.4519043,0.49365234,0.71484375,-0.328125,-0.3251953,0.28234863,36 
1.9378662,4.180908,-1.4038086,0.45166016,0.49243164,0.71435547,-0.328125,-0.3251953,0.28234863,37 
1.9226074,4.8980713,-1.373291,0.45361328,0.48999023,0.7133789,-0.3251953,-0.32958984,0.28234863,38 
2.2277832,4.272461,-1.1291504,0.45532227,0.48779297,0.7126465,-0.3251953,-0.32958984,0.28234863,39 
1.7547607,3.5552979,-0.9613037,0.45776367,0.4855957,0.71240234,-0.3251953,-0.32958984,0.28234863,40 
1.2207031,2.39563,-1.0070801,0.4584961,0.484375,0.71118164,-0.32592773,-0.3277588,0.28637695,41 
0.91552734,2.746582,-0.8544922,0.45776367,0.484375,0.7114258,-0.32592773,-0.3277588,0.28637695,42 
1.0681152,2.5024414,-0.62561035,0.4572754,0.48510742,0.71191406,-0.3284912,-0.3248291,0.2874756,43 
0.7019043,2.243042,-0.7324219,0.4567871,0.48608398,0.7126465,-0.3284912,-0.3248291,0.2874756,44 
1.0223389,2.8076172,-0.869751,0.45629883,0.48706055,0.7121582,-0.3284912,-0.3248291,0.2874756,45 
1.373291,2.3040771,-0.7019043,0.4567871,0.48779297,0.7114258,-0.32739258,-0.32592773,0.2845459,46 
1.3885498,2.3498535,-0.289917,0.4572754,0.48828125,0.71069336,-0.32739258,-0.32592773,0.2845459,47 
1.6326904,1.876831,-0.579834,0.45654297,0.4880371,0.71069336,-0.32666016,-0.32409668,0.2775879,48 
1.5716553,1.8920898,-0.8392334,0.45629883,0.48754883,0.7109375,-0.32666016,-0.32409668,0.2775879,49 
2.029419,1.6479492,-0.8544922,0.4555664,0.48779297,0.7116699,-0.32666016,-0.32409668,0.2775879,50 
1.8157959,1.6174316,-0.7324219,0.4555664,0.48754883,0.7128906,-0.3277588,-0.3244629,0.2816162,51 
1.5716553,2.4871826,-1.2664795,0.45458984,0.4868164,0.71362305,-0.3277588,-0.3244629,0.2816162,52 
2.1209717,2.89917,-1.6784668,0.45288086,0.48608398,0.7138672,-0.32666016,-0.32592773,0.2845459,53 
1.2054443,2.9144287,-1.5411377,0.45288086,0.48535156,0.71484375,-0.32666016,-0.32592773,0.2845459,54 
0.88500977,3.0670166,-1.9226074,0.45336914,0.484375,0.7150879,-0.32666016,-0.32592773,0.2845459,55 
0.77819824,2.8839111,-1.4343262,0.45410156,0.48486328,0.71533203,-0.3277588,-0.32702637,0.28674316,56 
0.7171631,2.609253,-1.3122559,0.45483398,0.4855957,0.7155762,-0.3277588,-0.32702637,0.28674316,57 
0.7324219,2.6245117,-1.373291,0.45483398,0.4868164,0.7155762,-0.328125,-0.32592773,0.2845459,58 
0.91552734,2.7313232,-1.5258789,0.4543457,0.48779297,0.7158203,-0.328125,-0.32592773,0.2845459,59 
1.1291504,2.7923584,-1.2207031,0.45361328,0.48901367,0.7155762,-0.328125,-0.32592773,0.2845459,60 
1.6174316,3.0670166,-1.2512207,0.45336914,0.49047852,0.71533203,-0.3248291,-0.3251953,0.2816162,61 
1.8157959,3.1738281,-1.1138916,0.453125,0.49047852,0.7145996,-0.3248291,-0.3251953,0.2816162,62 
2.105713,2.9449463,-1.0528564,0.45361328,0.49047852,0.7138672,-0.328125,-0.32739258,0.2845459,63 
2.4261475,2.822876,-0.869751,0.45288086,0.48901367,0.7138672,-0.328125,-0.32739258,0.2845459,64 
2.029419,3.250122,-0.8544922,0.45336914,0.48754883,0.71362305,-0.328125,-0.32739258,0.2845459,65 
1.9226074,3.0670166,-0.869751,0.45361328,0.48657227,0.7138672,-0.32995605,-0.3248291,0.28051758,66 
2.2735596,2.6550293,-0.6866455,0.4543457,0.48535156,0.7141113,-0.32995605,-0.3248291,0.28051758,67 
1.8157959,2.4871826,-0.79345703,0.4543457,0.48486328,0.7141113,-0.3244629,-0.32666016,0.28198242,68 
1.6479492,2.3345947,-0.93078613,0.4543457,0.484375,0.71484375,-0.3244629,-0.32666016,0.28198242,69 
1.1749268,2.7770996,-1.2207031,0.45385742,0.484375,0.7145996,-0.3244629,-0.32666016,0.28198242,70 
1.1291504,2.9907227,-1.3275146,0.45385742,0.48486328,0.71484375,-0.33032227,-0.3284912,0.28381348,71 
0.93078613,2.960205,-1.2359619,0.45361328,0.48510742,0.7155762,-0.33032227,-0.3284912,0.28381348,72 
0.8239746,3.0059814,-1.2817383,0.45385742,0.4855957,0.7163086,-0.32885742,-0.32702637,0.2878418,73 
0.7171631,3.0059814,-1.5106201,0.45410156,0.48583984,0.7158203,-0.32885742,-0.32702637,0.2878418,74 
0.91552734,2.7923584,-1.6784668,0.45410156,0.48657227,0.7150879,-0.32885742,-0.32702637,0.2878418,75 
1.3122559,3.0975342,-1.3885498,0.45410156,0.4868164,0.71484375,-0.3277588,-0.32739258,0.288208,76 
1.4953613,3.3874512,-1.3427734,0.45361328,0.4868164,0.71484375,-0.3277588,-0.32739258,0.288208,77 
1.449585,3.2653809,-1.4190674,0.4543457,0.48657227,0.7150879,-0.32958984,-0.32666016,0.28234863,78 
1.5563965,3.463745,-1.1291504,0.45410156,0.48608398,0.7145996,-0.32958984,-0.32666016,0.28234863,79 
1.5258789,3.479004,-1.5869141,0.45458984,0.48535156,0.71533203,-0.32958984,-0.32666016,0.28234863,80 
1.7089844,3.479004,-1.373291,0.45532227,0.48486328,0.71533203,-0.32922363,-0.328125,0.27612305,81 
1.8157959,3.5552979,-1.3580322,0.4555664,0.48486328,0.7150879,-0.32922363,-0.328125,0.27612305,82 
1.4648438,3.112793,-1.2817383,0.45483398,0.48461914,0.7155762,-0.3284912,-0.3251953,0.2845459,83 
1.083374,2.9754639,-1.3275146,0.45483398,0.48535156,0.7158203,-0.3284912,-0.3251953,0.2845459,84 
0.8392334,3.0212402,-1.0375977,0.45532227,0.48510742,0.7155762,-0.3284912,-0.3251953,0.2845459,85 
1.0986328,2.8076172,-1.1749268,0.4555664,0.48510742,0.71533203,-0.3284912,-0.32702637,0.28308105,86 
1.1444092,2.532959,-1.159668,0.45581055,0.48461914,0.71484375,-0.3284912,-0.32702637,0.28308105,87 
1.0681152,2.4719238,-0.8392334,0.45507812,0.484375,0.7145996,-0.328125,-0.3277588,0.28344727,88 
0.6713867,2.456665,-1.1444092,0.4543457,0.48388672,0.7141113,-0.328125,-0.3277588,0.28344727,89 
0.8087158,2.2583008,-0.9765625,0.4543457,0.484375,0.7145996,-0.328125,-0.3277588,0.28344727,90 
0.74768066,2.456665,-1.1901855,0.4543457,0.48510742,0.7155762,-0.32702637,-0.32629395,0.2845459,91 
0.579834,2.105713,-1.0223389,0.45483398,0.48510742,0.7155762,-0.32702637,-0.32629395,0.2845459,92 
0.2593994,2.2277832,-1.0681152,0.45483398,0.48461914,0.7155762,-0.32885742,-0.32629395,0.2841797,93 
-0.77819824,2.39563,-0.9613037,0.45336914,0.48535156,0.7155762,-0.32885742,-0.32629395,0.2841797,94 
-0.4272461,2.243042,-1.0681152,0.45166016,0.48706055,0.71533203,-0.32885742,-0.32629395,0.2841797,95 
-0.2746582,2.532959,-0.869751,0.45092773,0.48901367,0.7158203,-0.328125,-0.3248291,0.2783203,96 
1.0070801,3.189087,-0.9460449,0.4501953,0.4909668,0.7163086,-0.328125,-0.3248291,0.2783203,97 
1.4801025,3.7231445,-0.9613037,0.44995117,0.49169922,0.7167969,-0.32739258,-0.3277588,0.28271484,98 
1.7242432,4.0130615,-1.5106201,0.45117188,0.49145508,0.7167969,-0.32739258,-0.3277588,0.28271484,99 
2.0751953,3.7231445,-1.6174316,0.45288086,0.49047852,0.7158203,-0.32739258,-0.3277588,0.28271484,100 
1.953125,4.1503906,-1.159668,0.45458984,0.4885254,0.7158203,-0.32556152,-0.32556152,0.28308105,101 
2.3040771,3.40271,-1.1291504,0.45507812,0.48706055,0.7158203,-0.32556152,-0.32556152,0.28308105,102 
1.4343262,3.5705566,-1.0223389,0.45483398,0.48510742,0.71606445,-0.3277588,-0.32409668,0.2878418,103 
1.6326904,3.2653809,-1.083374,0.45410156,0.48388672,0.7167969,-0.3277588,-0.32409668,0.2878418,104 
1.0681152,3.829956,-0.77819824,0.45361328,0.48364258,0.7167969,-0.3277588,-0.32409668,0.2878418,105 
1.0681152,3.6621094,-1.0528564,0.45385742,0.48339844,0.71655273,-0.32739258,-0.3244629,0.2845459,106 
0.32043457,3.7994385,-0.9613037,0.4543457,0.48364258,0.7155762,-0.32739258,-0.3244629,0.2845459,107 
0.6713867,3.8452148,-1.159668,0.4555664,0.484375,0.7145996,-0.32885742,-0.32629395,0.28710938,108 
0.6713867,2.9296875,-1.2054443,0.4555664,0.48461914,0.7141113,-0.32885742,-0.32629395,0.28710938,109 
1.2207031,3.2043457,-0.88500977,0.45458984,0.48535156,0.71362305,-0.32885742,-0.32629395,0.28710938,110 
1.4953613,3.3569336,-1.2207031,0.4543457,0.48535156,0.7133789,-0.32556152,-0.32666016,0.2816162,111 
1.5411377,2.822876,-1.2207031,0.4543457,0.48608398,0.7133789,-0.32556152,-0.32666016,0.2816162,112 
1.8920898,2.6550293,-1.2054443,0.4543457,0.48632812,0.7138672,-0.3244629,-0.32556152,0.28564453,113 
2.1362305,3.2043457,-1.4953613,0.45336914,0.48535156,0.7150879,-0.3244629,-0.32556152,0.28564453,114 
1.6784668,3.4332275,-1.7242432,0.45239258,0.484375,0.7155762,-0.3244629,-0.32556152,0.28564453,115 
1.3275146,3.8146973,-1.4648438,0.45239258,0.48364258,0.71655273,-0.32739258,-0.32666016,0.28125,116 
0.9613037,3.5095215,-1.5563965,0.45361328,0.4819336,0.7155762,-0.32739258,-0.32666016,0.28125,117 
0.32043457,3.5095215,-1.4343262,0.45483398,0.4814453,0.7145996,-0.33032227,-0.32666016,0.28674316,118 
-0.015258789,2.89917,-1.4953613,0.4543457,0.48291016,0.71484375,-0.33032227,-0.32666016,0.28674316,119 
0.015258789,3.3111572,-1.2512207,0.45336914,0.48486328,0.7163086,-0.33032227,-0.32666016,0.28674316,120 
0.5187988,3.616333,-1.953125,0.45263672,0.4873047,0.717041,-0.32922363,-0.3251953,0.28271484,121 
0.64086914,3.4484863,-1.7547607,0.4519043,0.48901367,0.7175293,-0.32922363,-0.3251953,0.28271484,122 
1.449585,3.8757324,-1.4190674,0.45239258,0.4897461,0.71728516,-0.32958984,-0.32592773,0.28894043,123 
1.4648438,3.829956,-1.4190674,0.453125,0.48950195,0.717041,-0.32958984,-0.32592773,0.28894043,124 
1.3427734,3.8604736,-1.5106201,0.45288086,0.48828125,0.7163086,-0.32958984,-0.32592773,0.37280273,125 
1.4953613,3.5858154,-1.2969971,0.45288086,0.48754883,0.7163086,-0.32922363,-0.3248291,0.27905273,126 
0.869751,3.829956,-1.083374,0.45288086,0.4873047,0.7155762,-0.32922363,-0.3248291,0.27905273,127 
1.1291504,4.0283203,-0.7019043,0.453125,0.48706055,0.71606445,-0.32702637,-0.32702637,0.28564453,128 
1.373291,3.540039,-1.1138916,0.45410156,0.48706055,0.71533203,-0.32702637,-0.32702637,0.28564453,129 
1.6021729,3.3416748,-1.1291504,0.45483398,0.48657227,0.71484375,-0.32702637,-0.32702637,0.28564453,130 
1.6784668,3.112793,-0.869751,0.45581055,0.48583984,0.7145996,-0.32409668,-0.32556152,0.28234863,131 
1.8463135,3.0059814,-1.159668,0.45507812,0.48535156,0.7141113,-0.32409668,-0.32556152,0.28234863,132 
1.8920898,2.7770996,-1.2054443,0.45532227,0.48364258,0.71435547,-0.3277588,-0.32739258,0.28527832,133 
1.1138916,2.5939941,-1.1291504,0.45532227,0.48291016,0.7141113,-0.3277588,-0.32739258,0.28527832,134 
0.5645752,2.9296875,-1.1444092,0.45581055,0.48291016,0.7138672,-0.3277588,-0.32739258,0.28527832,135 
0.5340576,3.0517578,-1.1444092,0.4567871,0.48217773,0.7141113,-0.32592773,-0.32629395,0.28674316,136 
0.79345703,1.9073486,-0.93078613,0.45703125,0.48266602,0.7138672,-0.32592773,-0.32629395,0.28674316,137 
0.45776367,2.1362305,-1.083374,0.45703125,0.48339844,0.7141113,-0.32739258,-0.32922363,0.2816162,138 
0.5950928,2.7008057,-1.3275146,0.45629883,0.48388672,0.7150879,-0.32739258,-0.32922363,0.2816162,139 
1.0223389,3.0212402,-1.1749268,0.4555664,0.48461914,0.71606445,-0.32739258,-0.3251953,0.2845459,140 
1.2207031,3.0975342,-1.876831,0.45458984,0.48510742,0.71655273,-0.32629395,-0.3251953,0.2845459,141 
1.2664795,2.9907227,-1.663208,0.45483398,0.48535156,0.71655273,-0.32629395,-0.3251953,0.2845459,142 
1.2664795,3.5858154,-1.6326904,0.4560547,0.48510742,0.7163086,-0.328125,-0.32373047,0.28381348,143 
1.2969971,2.9449463,-1.6326904,0.4560547,0.48510742,0.7163086,-0.328125,-0.32373047,0.28381348,144 
1.6174316,3.1280518,-1.5716553,0.45581055,0.48461914,0.71655273,-0.328125,-0.32373047,0.37390137,145 
1.6784668,2.7923584,-1.4038086,0.45483398,0.48461914,0.71728516,-0.32666016,-0.328125,0.28015137,146 
1.4801025,3.4179688,-1.5869141,0.45458984,0.48486328,0.71655273,-0.32666016,-0.328125,0.28015137,147 
1.7852783,3.2196045,-1.5106201,0.45410156,0.48413086,0.71606445,-0.32739258,-0.3248291,0.28271484,148 
0.77819824,3.1433105,-1.6784668,0.45361328,0.48413086,0.71655273,-0.32739258,-0.3248291,0.28271484,149 
1.1901855,2.9907227,-1.5258789,0.45361328,0.4831543,0.71606445,-0.32739258,-0.3248291,0.28198242,150 
0.5645752,2.4719238,-1.1901855,0.45385742,0.48242188,0.7163086,-0.3277588,-0.32556152,0.28198242,151 
0.7171631,2.4719238,-1.0681152,0.45410156,0.48168945,0.71606445,-0.3277588,-0.32556152,0.28198242,152 
0.1373291,2.746582,-1.4038086,0.45361328,0.48217773,0.7158203,-0.32922363,-0.32629395,0.28637695,153 
-0.045776367,2.8839111,-1.1291504,0.45336914,0.48291016,0.7155762,-0.32922363,-0.32629395,0.28637695,154 
-0.9460449,2.822876,-0.9765625,0.45336914,0.48339844,0.7163086,-0.32922363,-0.32556152,0.27905273,155 
-0.33569336,2.9144287,-1.1444092,0.453125,0.48461914,0.7167969,-0.3244629,-0.32556152,0.27905273,156 
-0.15258789,3.0975342,-0.9765625,0.45263672,0.4873047,0.71728516,-0.3244629,-0.32556152,0.27905273,157 
0.36621094,3.7384033,-1.2664795,0.45239258,0.48999023,0.7182617,-0.32556152,-0.32592773,0.28710938,158 
0.47302246,4.1503906,-1.2664795,0.45288086,0.49072266,0.71875,-0.32556152,-0.32592773,0.28710938,159 
0.35095215,3.6773682,-1.2512207,0.45288086,0.4892578,0.7180176,-0.32556152,-0.32592773,0.28015137,160 
0.9765625,3.7841797,-1.2969971,0.453125,0.48828125,0.7175293,-0.32666016,-0.3248291,0.28015137,161 
0.8087158,3.9978027,-1.2512207,0.45385742,0.4868164,0.7163086,-0.32666016,-0.3248291,0.28015137,162 
1.4038086,3.768921,-1.2054443,0.45458984,0.48535156,0.7155762,-0.32702637,-0.3248291,0.28527832,163 
1.1444092,7.6293945,-1.1138916,0.45458984,0.484375,0.7150879,-0.32702637,-0.3248291,0.28527832,164 
1.0070801,3.8452148,-1.2664795,0.45483398,0.48413086,0.7145996,-0.32702637,-0.3244629,0.28234863,165 
0.91552734,4.0283203,-1.2054443,0.45507812,0.48339844,0.71484375,-0.32226562,-0.3244629,0.28234863,166 
1.083374,3.9520264,-1.5716553,0.45532227,0.48266602,0.71484375,-0.32226562,-0.3244629,0.28234863,167 
0.61035156,3.7994385,-1.4038086,0.4555664,0.4819336,0.7141113,-0.32702637,-0.3251953,0.28527832,168 
0.47302246,4.211426,-1.3122559,0.45581055,0.48242188,0.71362305,-0.32702637,-0.3251953,0.28527832,169 
0.15258789,3.7384033,-1.2512207,0.4567871,0.4831543,0.7141113,-0.3244629,-0.32666016,0.28125,170 
0.44250488,3.3416748,-1.4343262,0.45751953,0.48388672,0.7138672,-0.3244629,-0.32666016,0.28125,171 
0.2593994,3.8604736,-1.0681152,0.4572754,0.48413086,0.71362305,-0.3244629,-0.32666016,0.28125,172 
0.5950928,3.3416748,-1.2207031,0.45654297,0.48510742,0.7133789,-0.32409668,-0.32336426,0.28710938,173 
1.2054443,3.7078857,-1.0223389,0.4560547,0.48535156,0.7133789,-0.32409668,-0.32336426,0.28710938,174 
1.083374,3.6468506,-1.5411377,0.45581055,0.48510742,0.7138672,-0.32409668,-0.32629395,0.28710938,175 
0.77819824,3.9367676,-1.3580322,0.4555664,0.48461914,0.7150879,-0.3248291,-0.32629395,0.28710938,176 
1.3275146,3.479004,-1.6021729,0.4543457,0.48413086,0.71533203,-0.3248291,-0.32629395,0.28710938,177 
0.7171631,3.40271,-1.7700195,0.4543457,0.48364258,0.71533203,-0.32666016,-0.3248291,0.28710938,178 
0.21362305,3.3111572,-1.7852783,0.45458984,0.48339844,0.71533203,-0.32666016,-0.3248291,0.28710938,179 
0.18310547,3.753662,-1.7089844,0.45507812,0.4831543,0.7158203,-0.3251953,-0.3248291,0.2816162,180 
-0.4119873,3.8909912,-1.6174316,0.45507812,0.484375,0.7158203,-0.3251953,-0.3248291,0.2816162,181 
-0.10681152,3.7994385,-1.6937256,0.45532227,0.48608398,0.71606445,-0.3251953,-0.3248291,0.2816162,182 
-0.21362305,3.7384033,-1.449585,0.45507812,0.48779297,0.7163086,-0.3284912,-0.32556152,0.2878418,183 
0.22888184,3.692627,-1.2054443,0.45507812,0.48876953,0.71606445,-0.3284912,-0.32556152,0.2878418,184 
0.8239746,3.692627,-1.2817383,0.4555664,0.48876953,0.71533203,-0.32666016,-0.32592773,0.28674316,185 
0.6713867,3.7078857,-1.2512207,0.45581055,0.48828125,0.71484375,-0.32666016,-0.32592773,0.28674316,186 
0.7324219,3.5705566,-0.9765625,0.4555664,0.4873047,0.71435547,-0.32666016,-0.32592773,0.28674316,187 
0.5950928,3.5247803,-1.1138916,0.45581055,0.48583984,0.7138672,-0.32739258,-0.3251953,0.28857422,188 
1.0528564,3.8757324,-1.0223389,0.45532227,0.48535156,0.7138672,-0.32739258,-0.3251953,0.28857422,189 
0.90026855,3.3721924,-1.3427734,0.45532227,0.48510742,0.7141113,-0.32556152,-0.32922363,0.28271484,190 
0.7019043,3.692627,-1.083374,0.45532227,0.48535156,0.7145996,-0.32556152,-0.32922363,0.28271484,191 
0.76293945,3.768921,-0.8087158,0.4555664,0.48583984,0.7145996,-0.32556152,-0.32922363,0.28271484,192 
0.77819824,3.6315918,-1.083374,0.45581055,0.48583984,0.7141113,-0.32592773,-0.32702637,0.28637695,193 
1.0375977,3.479004,-1.3885498,0.4567871,0.48583984,0.7141113,-0.32592773,-0.32702637,0.28637695,194 
0.48828125,3.0517578,-0.9460449,0.4572754,0.48583984,0.7133789,-0.3248291,-0.3284912,0.28527832,195 
0.8239746,3.0822754,-1.2207031,0.45703125,0.48583984,0.71313477,-0.3248291,-0.3284912,0.28527832,196 
0.30517578,3.0975342,-0.9460449,0.45654297,0.4855957,0.71362305,-0.3248291,-0.3284912,0.28527832,197 
0.48828125,3.4484863,-1.5563965,0.45629883,0.4855957,0.7141113,-0.3277588,-0.32592773,0.2816162,198 
0.4272461,3.768921,-2.0446777,0.45629883,0.48583984,0.71435547,-0.3277588,-0.32592773,0.2816162,199 
0.61035156,3.6010742,-1.8463135,0.4572754,0.48583984,0.71435547,-0.3277588,-0.32373047,0.28308105,200 
0.45776367,3.7384033,-1.6479492,0.45776367,0.484375,0.7138672,-0.3277588,-0.32373047,0.28308105,201 
0.45776367,3.2958984,-1.4801025,0.45751953,0.484375,0.71313477,-0.3277588,-0.32373047,0.28308105,202 
0.36621094,3.8604736,-1.2207031,0.45654297,0.48413086,0.7133789,-0.32995605,-0.32885742,0.28894043,203 
0.47302246,4.2877197,-1.4190674,0.4560547,0.48364258,0.71435547,-0.32995605,-0.32885742,0.28894043,204 
0.24414062,4.0283203,-1.7242432,0.45581055,0.48413086,0.7141113,-0.3251953,-0.32373047,0.27722168,205 
-0.19836426,4.272461,-1.663208,0.45654297,0.48486328,0.7145996,-0.3251953,-0.32373047,0.27722168,206 
0.30517578,4.348755,-1.7089844,0.4572754,0.48632812,0.71533203,-0.3251953,-0.32373047,0.27722168,207 
0.5645752,4.196167,-1.3885498,0.45751953,0.4868164,0.71533203,-0.32666016,-0.32556152,0.2816162,208 
0.2593994,3.829956,-1.2664795,0.45703125,0.48754883,0.71484375,-0.32666016,-0.32556152,0.2816162,209 
0.8239746,3.9520264,-1.2969971,0.45751953,0.48706055,0.71362305,-0.3248291,-0.328125,0.2849121,210 
0.62561035,3.90625,-1.2512207,0.4572754,0.4868164,0.7126465,-0.3248291,-0.328125,0.2849121,211 
0.76293945,3.540039,-1.2664795,0.4572754,0.4868164,0.7116699,-0.3248291,-0.328125,0.2849121,212 
0.8239746,3.479004,-1.2664795,0.4572754,0.4855957,0.7116699,-0.32666016,-0.32739258,0.2841797,213 
0.76293945,3.6468506,-0.8239746,0.45751953,0.48510742,0.71191406,-0.32666016,-0.32739258,0.2841797,214 
0.45776367,3.479004,-0.88500977,0.45751953,0.48535156,0.7121582,-0.3277588,-0.3244629,0.28601074,215 
0.39672852,2.960205,-1.2207031,0.45776367,0.48608398,0.7126465,-0.3277588,-0.3244629,0.28601074,216 
0.21362305,3.6010742,-0.79345703,0.4580078,0.48608398,0.71240234,-0.3277588,-0.3244629,0.28601074,217 
-0.7019043,3.0059814,-1.2969971,0.45874023,0.48535156,0.71240234,-0.32702637,-0.32702637,0.28381348,218 
-1.3427734,2.960205,-1.4038086,0.45825195,0.4855957,0.7128906,-0.32702637,-0.32702637,0.28381348,219 
-1.4190674,2.8839111,-0.8392334,0.45751953,0.48583984,0.7128906,-0.32263184,-0.3251953,0.28125,220 
-0.8392334,2.6855469,-0.77819824,0.4567871,0.48754883,0.7133789,-0.32263184,-0.3251953,0.28125,221 
-0.5187988,3.7841797,-1.0223389,0.45532227,0.48901367,0.7141113,-0.32263184,-0.3251953,0.28125,222 
0.10681152,4.2877197,-1.8920898,0.4543457,0.4897461,0.71484375,-0.33032227,-0.32702637,0.2849121,223 
0.39672852,4.2877197,-2.0446777,0.45385742,0.48950195,0.71533203,-0.33032227,-0.32702637,0.2849121,224 
0.2746582,5.340576,-2.1514893,0.45361328,0.4885254,0.7150879,-0.3284912,-0.32922363,0.28234863,225 
0.9460449,5.4779053,-1.9989014,0.45458984,0.4873047,0.71435547,-0.3284912,-0.32922363,0.28234863,226 
0.45776367,4.8065186,-1.7852783,0.45654297,0.4855957,0.71313477,-0.3284912,-0.32922363,0.28234863,227 
0.12207031,4.9591064,-1.7242432,0.45776367,0.48461914,0.7133789,-0.32922363,-0.32409668,0.28198242,228 
-0.38146973,4.6081543,-1.7242432,0.4580078,0.484375,0.7126465,-0.32922363,-0.32409668,0.28198242,229 
-0.9918213,5.1574707,-1.373291,0.4584961,0.48486328,0.7116699,-0.32702637,-0.328125,0.28381348,230 
-1.083374,4.2419434,-1.2207031,0.45996094,0.48461914,0.71069336,-0.32702637,-0.328125,0.28381348,231 
-0.79345703,3.7994385,-0.6713867,0.45947266,0.48486328,0.7089844,-0.32702637,-0.328125,0.28381348,232 
-0.79345703,3.5552979,-0.79345703,0.4580078,0.48510742,0.7072754,-0.32885742,-0.32592773,0.2816162,233 
-0.7171631,3.6773682,-1.1444092,0.45629883,0.48413086,0.70703125,-0.32885742,-0.32592773,0.2816162,234 
-0.8544922,4.974365,-1.9226074,0.45532227,0.48535156,0.70825195,-0.3244629,-0.328125,0.28601074,235 
-0.32043457,5.8288574,-2.1514893,0.45654297,0.48583984,0.7104492,-0.3244629,-0.328125,0.28601074,236 
-0.93078613,5.3100586,-2.1820068,0.46020508,0.48632812,0.71313477,-0.3244629,-0.328125,0.28601074,237 
-0.8392334,3.6773682,-1.4801025,0.46240234,0.48779297,0.71435547,-0.32702637,-0.33032227,0.28198242,238 
-0.38146973,2.2888184,-0.8239746,0.46069336,0.4880371,0.71362305,-0.32702637,-0.33032227,0.28198242,239 
-0.74768066,3.112793,-1.159668,0.45532227,0.4880371,0.7121582,-0.32592773,-0.32702637,0.28271484,240 
-0.61035156,4.714966,-1.7547607,0.4494629,0.48754883,0.7114258,-0.32592773,-0.32702637,0.28271484,241 
-1.2664795,6.866455,-2.380371,0.44799805,0.4868164,0.7116699,-0.32592773,-0.32702637,0.28271484,242 
-1.6479492,7.6293945,-3.1280518,0.45117188,0.48706055,0.7133789,-0.32958984,-0.3314209,0.28857422,243 
-0.93078613,7.0343018,-3.2806396,0.45507812,0.4897461,0.7158203,-0.32958984,-0.3314209,0.28857422,244 
-0.2593994,7.537842,-3.250122,0.45874023,0.49365234,0.71777344,-0.3244629,-0.32592773,0.2841797,245 
0.2593994,7.217407,-3.4179688,0.46118164,0.49731445,0.7180176,-0.3244629,-0.32592773,0.2841797,246 
0.5645752,7.0495605,-3.112793,0.46435547,0.49951172,0.7167969,-0.3244629,-0.32592773,0.2841797,247 
1.2359619,5.9661865,-2.532959,0.4658203,0.50024414,0.71313477,-0.32995605,-0.32556152,0.28198242,248 
2.5024414,6.149292,-2.2888184,0.46557617,0.50146484,0.7092285,-0.32995605,-0.32556152,0.28198242,249 
3.5095215,6.729126,-1.8920898,0.4658203,0.50024414,0.7060547,-0.32666016,-0.32702637,0.28198242,250 
4.3182373,6.2713623,-1.6784668,0.46777344,0.4963379,0.70214844,-0.32666016,-0.32702637,0.28198242,251 
4.7302246,5.645752,-1.3275146,0.47070312,0.49243164,0.69873047,-0.32666016,-0.32702637,0.28198242,252 
5.1879883,3.9672852,-1.2207031,0.4741211,0.48706055,0.6970215,-0.32958984,-0.32885742,0.2845459,253 
5.2490234,2.6550293,-0.91552734,0.4765625,0.48168945,0.6965332,-0.32958984,-0.32885742,0.2845459,254 
4.40979,1.2359619,-0.2746582,0.47802734,0.47680664,0.6972656,-0.32666016,-0.32739258,0.28564453,255 
3.0822754,0.44250488,-0.30517578,0.47802734,0.47460938,0.6982422,-0.32666016,-0.32739258,0.28564453,0 
2.0141602,-0.15258789,0.12207031,0.4765625,0.4736328,0.69970703,-0.32666016,-0.32739258,0.28564453,1 
0.88500977,-0.79345703,0.76293945,0.47583008,0.47485352,0.7019043,-0.32922363,-0.3251953,0.28271484,2 
0.5187988,-1.7089844,0.579834,0.47387695,0.47753906,0.704834,-0.32922363,-0.3251953,0.28271484,3 
-0.1373291,-2.1820068,1.1901855,0.47070312,0.4802246,0.70751953,-0.32556152,-0.32739258,0.2878418,4 
-0.5950928,-2.0446777,0.33569336,0.46704102,0.48217773,0.7092285,-0.32556152,-0.32739258,0.2878418,5 
-0.44250488,-1.4343262,0.289917,0.4621582,0.48364258,0.7097168,-0.32556152,-0.32739258,0.2878418,6 
3.8909912,-0.88500977,-0.16784668,0.4572754,0.484375,0.7097168,-0.3277588,-0.32592773,0.28527832,7 
-0.5645752,0.15258789,-0.76293945,0.45336914,0.48535156,0.70996094,-0.3277588,-0.32592773,0.28527832,8 
0.4272461,1.1291504,-1.159668,0.44970703,0.484375,0.7089844,-0.3251953,-0.32263184,0.28637695,9 
0.5493164,2.2277832,-2.029419,0.44726562,0.48461914,0.70947266,-0.3251953,-0.32263184,0.28637695,10 
0.6713867,3.2043457,-2.1514893,0.44702148,0.48486328,0.71118164,-0.3251953,-0.32263184,0.28637695,11 
0.30517578,3.2653809,-2.2583008,0.4465332,0.48583984,0.7133789,-0.32885742,-0.32629395,0.28234863,12 
0.22888184,4.272461,-2.090454,0.44628906,0.48632812,0.7155762,-0.32885742,-0.32629395,0.28234863,13 
-0.33569336,4.5318604,-2.0751953,0.44628906,0.48779297,0.71777344,-0.3277588,-0.32592773,0.2808838,14 
-0.39672852,4.638672,-2.090454,0.44677734,0.49023438,0.7192383,-0.3277588,-0.32592773,0.2808838,15 
-0.30517578,4.623413,-2.2277832,0.4465332,0.4921875,0.71972656,-0.3277588,-0.32592773,0.2808838,16 
0.4272461,5.4473877,-1.953125,0.44702148,0.49414062,0.72021484,-0.32922363,-0.32592773,0.27978516,17 
0.24414062,5.493164,-1.5869141,0.4489746,0.49487305,0.71972656,-0.32922363,-0.32592773,0.27978516,18 
0.5493164,5.2948,-1.159668,0.4501953,0.49365234,0.71850586,-0.3251953,-0.32556152,0.28198242,19 
0.33569336,4.91333,-0.64086914,0.4506836,0.49194336,0.7155762,-0.3251953,-0.32556152,0.28198242,20 
0.21362305,5.1727295,-0.39672852,0.4506836,0.4897461,0.71313477,-0.3251953,-0.32556152,0.28198242,21 
-0.030517578,5.6762695,-0.61035156,0.44995117,0.4873047,0.7102051,-0.32739258,-0.32702637,0.28051758,22 
0.2593994,6.790161,-1.2969971,0.45043945,0.4855957,0.7092285,-0.32739258,-0.32702637,0.28051758,23 
-0.4119873,7.827759,-1.8920898,0.45239258,0.4855957,0.7092285,-0.3251953,-0.32885742,0.28125,24 
-0.8087158,7.949829,-2.39563,0.4560547,0.4855957,0.7109375,-0.3251953,-0.32885742,0.28125,25 
-0.48828125,7.888794,-2.4261475,0.4609375,0.4868164,0.7126465,-0.3251953,-0.32885742,0.28125,26 
-0.12207031,7.9040527,-2.532959,0.46289062,0.48876953,0.7138672,-0.32885742,-0.32592773,0.27905273,27 
0.2593994,7.293701,-2.0446777,0.46411133,0.49121094,0.71362305,-0.32885742,-0.32592773,0.27905273,28 
0.7019043,7.003784,-1.9683838,0.46411133,0.49194336,0.71313477,-0.32739258,-0.32666016,0.28894043,29 
1.1291504,7.446289,-2.6397705,0.46240234,0.49072266,0.7102051,-0.32739258,-0.32666016,0.28894043,30 
1.5106201,7.675171,-2.822876,0.46166992,0.4880371,0.70703125,-0.32739258,-0.32666016,0.28894043,31 
0.9918213,8.4991455,-3.1585693,0.4621582,0.48461914,0.7043457,-0.32666016,-0.32739258,0.28051758,32 
1.6784668,9.124756,-3.616333,0.4645996,0.4819336,0.7023926,-0.32666016,-0.32739258,0.28051758,33 
1.6021729,9.033203,-3.40271,0.46923828,0.4802246,0.7006836,-0.32739258,-0.3248291,0.28234863,34 
1.5411377,7.659912,-3.8146973,0.47314453,0.4794922,0.6994629,-0.32739258,-0.3248291,0.28234863,35 
1.3580322,6.8359375,-3.3416748,0.47729492,0.47973633,0.69873047,-0.32739258,-0.3248291,0.28234863,36 
0.7171631,5.9509277,-3.1738281,0.4807129,0.4802246,0.6970215,-0.32885742,-0.32629395,0.28637695,37 
0.30517578,4.9591064,-2.89917,0.4831543,0.4819336,0.6958008,-0.32885742,-0.32629395,0.28637695,38 
-0.061035156,3.616333,-1.9836426,0.4855957,0.48339844,0.69506836,-0.32592773,-0.328125,0.28381348,39 
0.061035156,1.9989014,-1.0528564,0.48706055,0.48510742,0.6948242,-0.32592773,-0.328125,0.28381348,40 
-0.091552734,0.90026855,-0.4119873,0.48706055,0.4873047,0.69555664,-0.32592773,-0.328125,0.28381348,41 
0.8392334,-0.79345703,0.12207031,0.48535156,0.4897461,0.6970215,-0.33032227,-0.32739258,0.28601074,42 
1.5716553,-1.0681152,0.1373291,0.48242188,0.49121094,0.6982422,-0.33032227,-0.32739258,0.28601074,43 
2.2583008,-1.7242432,-0.1373291,0.4777832,0.4909668,0.7006836,-0.3277588,-0.328125,0.28601074,44 
2.2888184,-2.5024414,-0.076293945,0.47314453,0.48876953,0.70336914,-0.3277588,-0.328125,0.28601074,45 
1.8005371,-1.7242432,-0.22888184,0.46923828,0.48632812,0.704834,-0.3277588,-0.328125,0.28601074,46 
1.2512207,-1.6174316,-0.19836426,0.46606445,0.48388672,0.7062988,-0.33032227,-0.32995605,0.28234863,47 
1.0528564,-1.1138916,-0.19836426,0.46411133,0.48266602,0.70751953,-0.33032227,-0.32995605,0.28234863,48 
0.0,-0.50354004,-0.045776367,0.46362305,0.48242188,0.70874023,-0.33215332,-0.32592773,0.28271484,49 
0.045776367,-1.0375977,-0.061035156,0.4633789,0.48510742,0.70996094,-0.33215332,-0.32592773,0.28271484,50 
0.15258789,-0.9765625,-0.289917,0.46289062,0.48828125,0.7102051,-0.33215332,-0.32592773,0.28271484,51 
0.6866455,-1.449585,-0.47302246,0.46240234,0.49145508,0.7109375,-0.3277588,-0.32666016,0.28271484,52 
1.9073486,-1.2054443,-0.16784668,0.46166992,0.4946289,0.7116699,-0.3277588,-0.32666016,0.28271484,53 
2.7618408,-0.90026855,0.0,0.46069336,0.49609375,0.7116699,-0.32958984,-0.3248291,0.28344727,54 
3.3111572,-1.083374,-0.2593994,0.45996094,0.4958496,0.71240234,-0.32958984,-0.3248291,0.28344727,55 
3.9215088,-1.4190674,-0.10681152,0.45874023,0.4946289,0.7121582,-0.32958984,-0.3248291,0.28344727,56 
3.6468506,-1.3427734,0.0,0.4580078,0.49267578,0.7121582,-0.32885742,-0.32336426,0.28015137,57 
3.1585693,-1.0986328,0.19836426,0.4580078,0.48999023,0.7116699,-0.32885742,-0.32336426,0.28015137,58 
3.2806396,-1.083374,0.19836426,0.45751953,0.48779297,0.71069336,-0.33032227,-0.32336426,0.2841797,59 
2.5634766,-0.869751,0.289917,0.45654297,0.4855957,0.7104492,-0.33032227,-0.32336426,0.2841797,60 
2.3651123,-0.35095215,0.12207031,0.45532227,0.48388672,0.7109375,-0.33032227,-0.32336426,0.2841797,61 
2.2125244,-0.77819824,-0.015258789,0.45507812,0.4831543,0.7121582,-0.32958984,-0.32336426,0.2808838,62 
1.7700195,-0.091552734,-0.061035156,0.45483398,0.4831543,0.7128906,-0.32958984,-0.32336426,0.2808838,63 
1.5716553,0.2746582,-0.12207031,0.45410156,0.48339844,0.71362305,-0.32995605,-0.3248291,0.27941895,64 
1.449585,0.22888184,-0.030517578,0.453125,0.48388672,0.7141113,-0.32995605,-0.3248291,0.27941895,65 
0.5187988,1.3275146,-0.289917,0.45214844,0.48388672,0.7155762,-0.32995605,-0.3248291,0.27941895,66 
0.24414062,1.4648438,-0.36621094,0.45214844,0.48461914,0.7155762,-0.328125,-0.32666016,0.28198242,67 
0.5187988,2.2583008,-0.61035156,0.4519043,0.48486328,0.71533203,-0.328125,-0.32666016,0.28198242,68 
0.62561035,2.670288,-1.2512207,0.45214844,0.48632812,0.7158203,-0.3277588,-0.32629395,0.28051758,69 
1.2664795,3.692627,-1.6021729,0.45166016,0.48583984,0.7163086,-0.3277588,-0.32629395,0.28051758,70 
1.0681152,3.7994385,-1.9836426,0.45214844,0.48510742,0.7167969,-0.3277588,-0.32629395,0.28051758,71 
0.76293945,4.40979,-2.1362305,0.45263672,0.48461914,0.7163086,-0.32409668,-0.32592773,0.27575684,72 
0.61035156,4.8217773,-2.1972656,0.45410156,0.484375,0.717041,-0.32409668,-0.32592773,0.27575684,73 
0.869751,4.547119,-2.3345947,0.4543457,0.48388672,0.7163086,-0.32958984,-0.32629395,0.28051758,74 
0.5493164,4.974365,-2.166748,0.45385742,0.48388672,0.7158203,-0.32958984,-0.32629395,0.28051758,75 
0.61035156,5.340576,-2.166748,0.45385742,0.48461914,0.7141113,-0.32958984,-0.32629395,0.28051758,76 
0.2746582,5.584717,-2.1209717,0.45385742,0.4855957,0.71362305,-0.32629395,-0.32299805,0.27905273,77 
0.7171631,6.072998,-2.319336,0.4543457,0.4868164,0.71313477,-0.32629395,-0.32299805,0.27905273,78 
0.9918213,5.630493,-2.3498535,0.4567871,0.4885254,0.7126465,-0.3277588,-0.32885742,0.28564453,79 
1.3122559,6.072998,-2.2125244,0.45922852,0.4897461,0.7121582,-0.3277588,-0.32885742,0.28564453,80 
1.5258789,5.0354004,-1.8005371,0.4609375,0.49047852,0.71118164,-0.3277588,-0.32885742,0.28564453,81 
1.8463135,4.5776367,-1.4648438,0.46191406,0.49023438,0.7102051,-0.32629395,-0.32885742,0.2783203,82 
1.7852783,4.119873,-1.1749268,0.46240234,0.48876953,0.7092285,-0.32629395,-0.32885742,0.2783203,83 
1.6784668,4.119873,-1.0528564,0.4621582,0.48779297,0.70825195,-0.32666016,-0.32995605,0.28710938,84 
1.2207031,4.974365,-1.5869141,0.46264648,0.4868164,0.7077637,-0.32666016,-0.32995605,0.28710938,85 
0.9765625,4.470825,-1.4953613,0.4638672,0.4855957,0.70703125,-0.32666016,-0.32995605,0.28710938,86 
0.22888184,4.058838,-0.9918213,0.4663086,0.48339844,0.70751953,-0.3244629,-0.32995605,0.2841797,87 
0.15258789,3.4484863,-0.9613037,0.46801758,0.48291016,0.70825195,-0.3244629,-0.32995605,0.2841797,88 
-0.1373291,3.0670166,-0.7171631,0.46899414,0.4831543,0.70874023,-0.3284912,-0.32922363,0.28234863,89 
-0.076293945,3.189087,-0.8392334,0.46826172,0.48535156,0.70947266,-0.3284912,-0.32922363,0.28234863,90 
0.79345703,2.8533936,-0.8087158,0.46679688,0.48657227,0.70996094,-0.3284912,-0.32922363,0.28198242,91 
0.93078613,2.7160645,-1.0986328,0.4650879,0.4868164,0.7104492,-0.328125,-0.32922363,0.28198242,92 
1.663208,3.0975342,-1.3122559,0.4638672,0.48632812,0.71069336,-0.328125,-0.32922363,0.28198242,93 
1.2512207,3.1585693,-1.5716553,0.46411133,0.48461914,0.7109375,-0.3277588,-0.32958984,0.28198242,94 
0.6713867,1.7242432,-1.2817383,0.4645996,0.48364258,0.7102051,-0.3277588,-0.32958984,0.28198242,95 
0.44250488,1.5258789,-0.9765625,0.46533203,0.4831543,0.70947266,-0.3277588,-0.32958984,0.28198242,96 
0.4272461,1.4190674,-1.0070801,0.4638672,0.48339844,0.7092285,-0.32629395,-0.33068848,0.28015137,97 
-0.21362305,1.1444092,-1.1291504,0.46166992,0.48413086,0.70874023,-0.32629395,-0.33068848,0.28015137,98 
0.44250488,1.2054443,-0.9765625,0.4597168,0.4855957,0.7080078,-0.32629395,-0.32958984,0.28198242,99 
0.15258789,1.6021729,-0.76293945,0.45922852,0.4873047,0.7080078,-0.32629395,-0.32958984,0.28198242,100 
0.289917,1.5869141,-0.8544922,0.4597168,0.4885254,0.70825195,-0.32629395,-0.32958984,0.28198242,101 
0.93078613,1.5258789,-0.869751,0.45947266,0.48901367,0.7089844,-0.32592773,-0.32629395,0.2808838,102 
1.2969971,1.3885498,-0.62561035,0.45898438,0.48950195,0.70996094,-0.32592773,-0.32629395,0.2808838,103 
1.4038086,2.105713,-0.9613037,0.45532227,0.4873047,0.7150879,-0.32995605,-0.32629395,0.28234863,106 
1.1901855,2.0446777,-0.5187988,0.45410156,0.48583984,0.71655273,-0.32885742,-0.32629395,0.28234863,107 
1.083374,2.243042,-0.9613037,0.453125,0.48486328,0.717041,-0.32885742,-0.32629395,0.28234863,108 
0.48828125,3.0517578,-1.2359619,0.45141602,0.48388672,0.7167969,-0.32995605,-0.32702637,0.2878418,109 
-0.015258789,3.6315918,-1.0375977,0.4506836,0.4831543,0.71606445,-0.32995605,-0.32702637,0.2878418,110 
-0.045776367,3.8604736,-1.2512207,0.45141602,0.48266602,0.71533203,-0.32995605,-0.32702637,0.2878418,111 
-0.4119873,4.3945312,-1.5563965,0.4519043,0.48266602,0.71435547,-0.32885742,-0.328125,0.28271484,112 
-0.32043457,4.40979,-1.5869141,0.45239258,0.48388672,0.71435547,-0.32885742,-0.328125,0.28271484,113 
-0.076293945,4.760742,-1.5869141,0.45239258,0.4855957,0.7145996,-0.32666016,-0.32556152,0.28234863,114 
0.061035156,5.6915283,-1.7852783,0.453125,0.48779297,0.7158203,-0.32666016,-0.32556152,0.28234863,115 
0.30517578,5.8288574,-2.1820068,0.4555664,0.4897461,0.7167969,-0.32666016,-0.32556152,0.28198242,116 
0.5493164,4.989624,-1.6937256,0.45825195,0.49121094,0.7163086,-0.32629395,-0.32885742,0.28198242,117 
0.45776367,4.257202,-1.2207031,0.46069336,0.49194336,0.71533203,-0.32629395,-0.32885742,0.28198242,118 
0.7171631,3.692627,-1.0681152,0.4609375,0.49243164,0.7133789,-0.3284912,-0.32666016,0.2779541,119 
1.2664795,4.638672,-1.3580322,0.46020508,0.4921875,0.7114258,-0.3284912,-0.32666016,0.2779541,120 
2.0751953,4.9591064,-1.3275146,0.45947266,0.49047852,0.7097168,-0.3284912,-0.32885742,0.2808838,121 
1.7700195,5.218506,-1.8157959,0.46069336,0.48828125,0.7080078,-0.328125,-0.32885742,0.2808838,122 
2.1514893,4.3945312,-1.8157959,0.4633789,0.48706055,0.70751953,-0.328125,-0.32885742,0.2808838,123 
2.1972656,4.3792725,-1.5411377,0.46655273,0.48608398,0.7067871,-0.32995605,-0.32702637,0.2816162,124 
2.4414062,3.5552979,-1.5258789,0.46899414,0.48535156,0.70703125,-0.32995605,-0.32702637,0.2816162,125 
2.1820068,2.9907227,-1.2512207,0.46972656,0.48510742,0.7060547,-0.32995605,-0.32702637,0.27868652,126 
2.1362305,2.1362305,-0.76293945,0.4699707,0.48486328,0.70581055,-0.32885742,-0.32702637,0.27868652,127 
1.9226074,2.0599365,-0.9765625,0.46923828,0.48510742,0.7060547,-0.32885742,-0.32702637,0.27868652,128 
2.029419,1.5563965,-0.90026855,0.46875,0.48510742,0.7062988,-0.32885742,-0.32885742,0.28271484,129 
2.0446777,1.449585,-1.2664795,0.46850586,0.48510742,0.70703125,-0.32885742,-0.32885742,0.28271484,130 
2.319336,0.88500977,-0.8392334,0.46777344,0.48413086,0.7072754,-0.32885742,-0.32885742,0.27905273,131 
1.9683838,0.045776367,-0.7171631,0.46826172,0.4831543,0.7080078,-0.32666016,-0.328125,0.27905273,132 
2.2735596,-0.62561035,-0.64086914,0.46704102,0.48266602,0.7077637,-0.32666016,-0.328125,0.27905273,133 
2.2735596,-0.2593994,-1.1749268,0.4645996,0.48242188,0.70825195,-0.33068848,-0.32409668,0.2845459,134 
2.090454,-0.015258789,-0.76293945,0.4621582,0.48266602,0.7089844,-0.33068848,-0.32409668,0.2845459,135 
1.876831,0.076293945,-1.0681152,0.46069336,0.48242188,0.70947266,-0.33068848,-0.3251953,0.28051758,136 
1.6326904,0.10681152,-1.2359619,0.45947266,0.48291016,0.7102051,-0.3277588,-0.3251953,0.28051758,137 
0.9765625,-0.076293945,-0.9613037,0.45825195,0.48266602,0.7104492,-0.3277588,-0.3251953,0.28051758,138 
0.90026855,-0.64086914,-1.0375977,0.45629883,0.48339844,0.7114258,-0.3284912,-0.32739258,0.28271484,139 
0.77819824,-0.50354004,-1.1291504,0.45410156,0.48388672,0.71313477,-0.3284912,-0.32739258,0.28271484,140 
0.6561279,0.74768066,-1.2054443,0.45214844,0.48510742,0.7145996,-0.3284912,-0.32702637,0.27941895,141 
0.579834,1.3275146,-1.5869141,0.4501953,0.48657227,0.71606445,-0.32556152,-0.32702637,0.27941895,142 
0.5340576,2.0446777,-1.1444092,0.44848633,0.48828125,0.717041,-0.32556152,-0.32702637,0.27941895,143 
1.0375977,2.532959,-1.1749268,0.4477539,0.4885254,0.7175293,-0.328125,-0.32995605,0.2775879,144 
1.0375977,2.319336,-1.1291504,0.44702148,0.48754883,0.71777344,-0.328125,-0.32995605,0.2775879,145 
0.45776367,3.3111572,-1.1749268,0.44506836,0.48510742,0.717041,-0.328125,-0.32739258,0.2783203,146 
0.33569336,3.8452148,-0.9765625,0.4440918,0.48388672,0.7167969,-0.32556152,-0.32739258,0.2783203,147 
-0.289917,4.2877197,-0.88500977,0.44384766,0.48266602,0.717041,-0.32556152,-0.32739258,0.2783203,148 
-0.4119873,4.852295,-1.6479492,0.44458008,0.48168945,0.7167969,-0.32995605,-0.3251953,0.28125,149 
-0.9765625,4.928589,-1.6479492,0.44580078,0.48095703,0.7180176,-0.32995605,-0.3251953,0.28125,150 
-2.1209717,5.554199,-1.5869141,0.44628906,0.48217773,0.7192383,-0.32702637,-0.3248291,0.2808838,151 
-2.4871826,6.164551,-1.8005371,0.4465332,0.48388672,0.7216797,-0.32702637,-0.3248291,0.2808838,152 
-2.8686523,6.4697266,-1.9989014,0.44702148,0.4868164,0.7241211,-0.32702637,-0.3248291,0.2808838,153 
-2.456665,7.0495605,-2.1820068,0.4477539,0.48950195,0.7260742,-0.32885742,-0.32592773,0.28527832,154 
-1.7242432,8.041382,-2.7160645,0.44848633,0.49316406,0.7270508,-0.32885742,-0.32592773,0.28527832,155 
-0.6713867,9.429932,-2.9449463,0.44970703,0.49682617,0.72680664,-0.3284912,-0.33068848,0.28271484,156 
0.15258789,10.040283,-3.479004,0.45239258,0.49853516,0.7246094,-0.3284912,-0.33068848,0.28271484,157 
0.91552734,9.933472,-3.6315918,0.4560547,0.49951172,0.7211914,-0.3284912,-0.33068848,0.28271484,158 
1.6174316,9.918213,-3.4332275,0.4609375,0.4987793,0.71728516,-0.33032227,-0.32666016,0.28234863,159 
2.0141602,8.987427,-2.7160645,0.4650879,0.4958496,0.7126465,-0.33032227,-0.32666016,0.28234863,160 
2.6550293,8.7890625,-2.8076172,0.46875,0.49267578,0.70825195,-0.33068848,-0.32739258,0.28308105,161 
2.7618408,8.31604,-2.4414062,0.47143555,0.48901367,0.7036133,-0.33068848,-0.32739258,0.28308105,162 
3.463745,7.1411133,-2.0751953,0.4753418,0.48486328,0.69970703,-0.33068848,-0.32739258,0.28308105,163 
3.0975342,6.2561035,-1.2512207,0.47851562,0.4814453,0.69750977,-0.3317871,-0.32666016,0.28271484,164 
2.9754639,4.8217773,-0.90026855,0.48120117,0.47851562,0.6953125,-0.3317871,-0.32666016,0.28271484,165 
3.40271,3.479004,-0.8239746,0.48242188,0.47631836,0.6953125,-0.32629395,-0.32592773,0.27978516,166 
2.3345947,1.8615723,-0.30517578,0.48242188,0.47509766,0.69555664,-0.32629395,-0.32592773,0.27978516,167 
1.5106201,0.869751,-0.1373291,0.4819336,0.4741211,0.6965332,-0.32629395,-0.32592773,0.27978516,168 
0.93078613,-0.44250488,-0.19836426,0.4807129,0.47436523,0.6977539,-0.32995605,-0.328125,0.28601074,169 
0.64086914,-1.0375977,0.061035156,0.47851562,0.47485352,0.6999512,-0.32995605,-0.328125,0.28601074,170 
0.045776367,-1.7852783,0.21362305,0.47509766,0.47631836,0.7011719,-0.32922363,-0.32373047,0.28710938,171 
-0.1373291,-1.3580322,-0.2593994,0.47216797,0.47753906,0.7019043,-0.32922363,-0.32373047,0.28710938,172 
-0.24414062,-0.6713867,-0.48828125,0.46850586,0.47924805,0.7036133,-0.32922363,-0.32373047,0.28710938,173 
0.061035156,-0.32043457,-1.0223389,0.46606445,0.4794922,0.7050781,-0.32958984,-0.3277588,0.28527832,174 
-0.030517578,-0.12207031,-0.62561035,0.4638672,0.48046875,0.7062988,-0.32958984,-0.3277588,0.28527832,175 
-0.2746582,0.33569336,-0.8087158,0.45996094,0.4807129,0.7077637,-0.328125,-0.3284912,0.28271484,176 
-0.48828125,0.4119873,-1.0681152,0.4567871,0.4819336,0.7089844,-0.328125,-0.3284912,0.28271484,177 
-0.50354004,1.159668,-1.6326904,0.453125,0.4831543,0.71191406,-0.328125,-0.3284912,0.28271484,178 
-0.6713867,2.4261475,-1.4648438,0.44970703,0.484375,0.7145996,-0.3310547,-0.328125,0.28015137,179 
-0.33569336,3.0517578,-1.8920898,0.44848633,0.48608398,0.717041,-0.3310547,-0.328125,0.28015137,180 
-0.44250488,3.326416,-1.663208,0.4477539,0.48901367,0.71899414,-0.32739258,-0.3277588,0.27978516,181 
0.15258789,3.2196045,-1.4953613,0.4477539,0.4921875,0.7199707,-0.32739258,-0.3277588,0.27978516,182 
-0.061035156,3.112793,-1.4190674,0.44726562,0.4946289,0.7194824,-0.32739258,-0.3277588,0.27978516,183 
0.8087158,3.6621094,-1.083374,0.44580078,0.49609375,0.7194824,-0.33068848,-0.32739258,0.288208,184 
1.0986328,4.196167,-1.1291504,0.44482422,0.49731445,0.720459,-0.33068848,-0.32739258,0.288208,185 
2.029419,5.1116943,-0.90026855,0.4453125,0.4970703,0.72094727,-0.33032227,-0.32885742,0.28125,186 
2.4108887,5.2948,-1.1749268,0.44702148,0.49609375,0.7207031,-0.33032227,-0.32885742,0.28125,187 
2.5177002,5.4626465,-1.159668,0.44848633,0.49487305,0.72021484,-0.33032227,-0.32885742,0.28125,188 
2.319336,5.8135986,-0.8392334,0.44970703,0.49291992,0.71899414,-0.3314209,-0.32666016,0.28344727,189 
2.4719238,5.5999756,-0.5187988,0.45166016,0.49072266,0.71728516,-0.3314209,-0.32666016,0.28344727,190 
2.0599365,5.7373047,-1.0375977,0.45458984,0.48901367,0.71606445,-0.3277588,-0.32702637,0.28381348,191 
2.1820068,5.6915283,-0.93078613,0.4572754,0.4868164,0.7138672,-0.3277588,-0.32702637,0.28381348,192 
2.3498535,5.9051514,-0.9613037,0.46166992,0.4855957,0.7121582,-0.3277588,-0.32702637,0.28381348,193 
2.0141602,5.2490234,-0.62561035,0.46557617,0.48486328,0.7109375,-0.32592773,-0.32739258,0.28125,194 
1.9836426,5.0811768,-1.0528564,0.46899414,0.48461914,0.70874023,-0.32592773,-0.32739258,0.28125,195 
2.4414062,4.0740967,-0.90026855,0.47094727,0.484375,0.7060547,-0.32739258,-0.32409668,0.2779541,196 
2.2735596,3.2806396,-0.8544922,0.47143555,0.48413086,0.7038574,-0.32739258,-0.32409668,0.2779541,197 
2.1209717,3.8604736,-1.1291504,0.4716797,0.48388672,0.70214844,-0.32739258,-0.32409668,0.2779541,198 
2.8076172,3.3111572,-1.5716553,0.47143555,0.48242188,0.7011719,-0.32702637,-0.32556152,0.28051758,199 
1.8157959,2.7618408,-1.5106201,0.4716797,0.4777832,0.7011719,-0.3277588,-0.32592773,0.28234863,202 
1.5258789,2.1514893,-1.5411377,0.47045898,0.47705078,0.701416,-0.3277588,-0.32592773,0.28234863,203 
0.9765625,1.5869141,-2.1209717,0.4699707,0.47607422,0.70288086,-0.32922363,-0.32373047,0.27978516,204 
0.62561035,1.5106201,-2.0751953,0.46875,0.47729492,0.70336914,-0.32922363,-0.32373047,0.27978516,205 
0.015258789,1.1138916,-1.6937256,0.46704102,0.47802734,0.70532227,-0.32702637,-0.3251953,0.28271484,206 
0.24414062,1.159668,-1.6479492,0.46557617,0.4794922,0.7072754,-0.32702637,-0.3251953,0.28271484,207 
0.7171631,0.79345703,-1.8005371,0.46362305,0.4819336,0.7089844,-0.32702637,-0.3251953,0.28271484,208 
1.373291,1.5869141,-1.5411377,0.46166992,0.48535156,0.7102051,-0.32885742,-0.32922363,0.28198242,209 
1.739502,1.7547607,-1.9378662,0.45996094,0.48828125,0.7128906,-0.32885742,-0.32922363,0.28198242,210 
1.6937256,2.105713,-1.9683838,0.45922852,0.49047852,0.7158203,-0.32556152,-0.32885742,0.2808838,211 
1.5716553,2.1514893,-1.9073486,0.45874023,0.4909668,0.71850586,-0.32556152,-0.32885742,0.2808838,212 
1.6174316,2.380371,-1.4801025,0.45776367,0.49121094,0.7199707,-0.32556152,-0.32885742,0.2808838,213 
1.5869141,2.3498535,-1.2359619,0.45629883,0.49121094,0.72094727,-0.3248291,-0.32885742,0.27868652,214 
1.5411377,2.822876,-0.7324219,0.45532227,0.49169922,0.7211914,-0.3248291,-0.32885742,0.27868652,215 
1.4190674,3.2958984,-0.9613037,0.453125,0.49169922,0.72094727,-0.3248291,-0.32739258,0.27612305,216 
1.8463135,4.3182373,-0.869751,0.4519043,0.49145508,0.7199707,-0.3248291,-0.32739258,0.27612305,217 
2.5787354,4.8217773,-0.8239746,0.45166016,0.49023438,0.7182617,-0.3248291,-0.32739258,0.27612305,218 
3.1433105,5.0201416,-0.8087158,0.45288086,0.48828125,0.7155762,-0.32629395,-0.32556152,0.28527832,219 
3.326416,4.5318604,-0.8392334,0.4555664,0.48583984,0.71362305,-0.32629395,-0.32556152,0.28527832,220 
3.540039,3.9978027,-0.76293945,0.4572754,0.4831543,0.7121582,-0.3284912,-0.32739258,0.28381348,221 
2.960205,3.5705566,-0.5950928,0.45874023,0.48095703,0.7116699,-0.3284912,-0.32739258,0.28381348,222 
2.4414062,3.2196045,-0.8392334,0.45922852,0.47875977,0.7114258,-0.3284912,-0.32739258,0.28381348,223 
1.2969971,2.7618408,-0.62561035,0.46044922,0.47705078,0.71118164,-0.33032227,-0.3244629,0.2845459,224 
1.1138916,2.960205,-0.48828125,0.46191406,0.47680664,0.7109375,-0.33032227,-0.3244629,0.2845459,225 
1.3275146,3.3721924,-0.62561035,0.4621582,0.47924805,0.7104492,-0.33032227,-0.3218994,0.2841797,226 
1.5258789,3.2806396,-0.91552734,0.46289062,0.4819336,0.7104492,-0.33032227,-0.3218994,0.2841797,227 
1.5411377,3.3874512,-1.4190674,0.46362305,0.48364258,0.70996094,-0.33032227,-0.3218994,0.2841797,228 
2.3498535,3.6010742,-1.7089844,0.46484375,0.48388672,0.71118164,-0.33068848,-0.32556152,0.2845459,229 
2.609253,4.348755,-1.953125,0.46606445,0.48242188,0.7121582,-0.33068848,-0.32556152,0.2845459,230 
1.9378662,3.692627,-2.0599365,0.46777344,0.48095703,0.7141113,-0.3277588,-0.3244629,0.28308105,231 
1.8615723,3.982544,-1.6479492,0.46728516,0.4794922,0.7150879,-0.3277588,-0.3244629,0.28308105,232 
0.9765625,3.7231445,-1.2512207,0.4658203,0.4790039,0.71435547,-0.3277588,-0.3244629,0.28308105,233 
0.7019043,3.540039,-1.3122559,0.4638672,0.47802734,0.7128906,-0.32922363,-0.32556152,0.2783203,234 
1.0223389,7.537842,-1.449585,0.4609375,0.47802734,0.7104492,-0.32922363,-0.32556152,0.2783203,235 
0.79345703,3.9672852,-1.8157959,0.45947266,0.47851562,0.70874023,-0.32739258,-0.32336426,0.28308105,236 
0.45776367,4.0893555,-2.319336,0.45898438,0.4794922,0.70751953,-0.32739258,-0.32336426,0.28308105,237 
1.4801025,4.058838,-2.166748,0.45947266,0.48046875,0.70825195,-0.32739258,-0.32336426,0.28308105,238 
0.76293945,3.6621094,-2.3040771,0.46118164,0.4814453,0.7084961,-0.32958984,-0.32592773,0.27905273,239 
0.8544922,2.1972656,-1.7852783,0.46289062,0.48242188,0.7092285,-0.32958984,-0.32592773,0.27905273,240 
0.076293945,2.105713,-0.8544922,0.46264648,0.48364258,0.7097168,-0.33032227,-0.3277588,0.28271484,241 
0.1373291,1.8157959,-0.62561035,0.46166992,0.48413086,0.7102051,-0.33032227,-0.3277588,0.28271484,242 
0.90026855,1.9378662,-0.8239746,0.4597168,0.4855957,0.71069336,-0.33032227,-0.3277588,0.28271484,243 
1.159668,2.8381348,-0.8239746,0.4572754,0.48754883,0.7109375,-0.3317871,-0.3251953,0.27941895,244 
1.6326904,3.189087,-1.3275146,0.45703125,0.48999023,0.7121582,-0.3317871,-0.3251953,0.27941895,245 
2.5482178,3.616333,-1.1444092,0.45703125,0.49121094,0.7128906,-0.32922363,-0.32629395,0.28234863,246 
3.2653809,3.9672852,-1.7242432,0.45898438,0.49023438,0.71435547,-0.32922363,-0.32629395,0.28234863,247 
3.1433105,3.982544,-1.4343262,0.46166992,0.4885254,0.7155762,-0.32922363,-0.32629395,0.28234863,248 
2.9754639,3.2653809,-1.3580322,0.4633789,0.48608398,0.71655273,-0.3317871,-0.32409668,0.28308105,249 
2.105713,2.456665,-0.9613037,0.4638672,0.4831543,0.71606445,-0.3317871,-0.32409668,0.28308105,250 
2.166748,3.463745,-0.869751,0.4633789,0.4807129,0.7150879,-0.3310547,-0.32885742,0.28051758,251 
1.8157959,2.960205,-0.5493164,0.46362305,0.4777832,0.7133789,-0.3310547,-0.32885742,0.28051758,252 
1.8615723,2.9144287,-0.8544922,0.46362305,0.47607422,0.71191406,-0.3310547,-0.32885742,0.28051758,253 
1.953125,3.1280518,-0.8544922,0.46313477,0.4753418,0.7104492,-0.32958984,-0.32373047,0.27978516,254 
2.0141602,3.0670166,-0.91552734,0.4638672,0.47509766,0.7109375,-0.32958984,-0.32373047,0.27978516,255 
1.9683838,2.8533936,-1.2054443,0.46435547,0.47460938,0.71362305,-0.32556152,-0.32373047,0.27941895,0 
1.2054443,2.9449463,-1.7089844,0.46362305,0.47485352,0.717041,-0.32556152,-0.32373047,0.27941895,1 
1.2969971,2.9907227,-1.8920898,0.46289062,0.47753906,0.7194824,-0.32556152,-0.32373047,0.27941895,2 
0.7019043,3.982544,-1.8005371,0.46264648,0.4807129,0.72094727,-0.32885742,-0.32409668,0.28344727,3 
0.74768066,4.058838,-1.6326904,0.46264648,0.48388672,0.72021484,-0.32885742,-0.32409668,0.28344727,4 
0.91552734,4.2419434,-1.159668,0.4621582,0.48461914,0.7180176,-0.32556152,-0.3248291,0.2808838,5 
1.4953613,3.9367676,-0.9460449,0.46142578,0.48486328,0.7158203,-0.32556152,-0.3248291,0.2808838,6 
1.7852783,4.40979,-0.869751,0.46069336,0.48364258,0.7133789,-0.32556152,-0.3248291,0.2808838,7 
2.4871826,4.470825,-1.0681152,0.46142578,0.48120117,0.71118164,-0.32995605,-0.32373047,0.28015137,8 
2.6245117,3.5858154,-0.9613037,0.46191406,0.47802734,0.7102051,-0.32995605,-0.32373047,0.28015137,9 
2.609253,4.6081543,-1.4801025,0.46191406,0.47558594,0.71118164,-0.32995605,-0.3244629,0.27539062,10 
2.6855469,4.5776367,-1.2664795,0.46264648,0.47387695,0.7121582,-0.32995605,-0.3244629,0.27539062,11 
1.4648438,3.7994385,-1.2359619,0.4638672,0.47314453,0.7138672,-0.32995605,-0.3244629,0.27539062,12 
0.88500977,3.5095215,-0.90026855,0.4663086,0.4753418,0.7150879,-0.32739258,-0.32226562,0.27722168,13 
0.44250488,2.2888184,-0.64086914,0.4663086,0.47851562,0.7141113,-0.32739258,-0.32226562,0.27722168,14 
0.9765625,1.7089844,-0.091552734,0.4645996,0.48266602,0.7121582,-0.32922363,-0.32702637,0.28344727,15 
1.2817383,1.5563965,-0.6713867,0.46166992,0.48583984,0.7102051,-0.32922363,-0.32702637,0.28344727,16 
1.6784668,2.6245117,-0.8544922,0.45898438,0.4873047,0.7097168,-0.32922363,-0.32702637,0.28344727,17 
1.6174316,3.1585693,-1.3885498,0.45825195,0.4868164,0.7102051,-0.32995605,-0.3218994,0.27978516,18 
2.3651123,3.036499,-1.739502,0.45898438,0.48535156,0.71191406,-0.32995605,-0.3218994,0.27978516,19 
2.4719238,3.0517578,-1.7700195,0.46118164,0.48364258,0.71240234,-0.32885742,-0.32263184,0.2816162,20 
1.953125,2.4261475,-1.7242432,0.4621582,0.48168945,0.7141113,-0.32885742,-0.32263184,0.2816162,21 
1.2817383,2.4414062,-1.2817383,0.46142578,0.47973633,0.7145996,-0.32885742,-0.32263184,0.2816162,22 
1.1291504,3.1433105,-1.6479492,0.46069336,0.47753906,0.71435547,-0.32958984,-0.3251953,0.28125,23 
0.6561279,3.8146973,-1.8157959,0.4609375,0.47705078,0.7128906,-0.32958984,-0.3251953,0.28125,24 
0.24414062,3.6315918,-1.5869141,0.46191406,0.47729492,0.7121582,-0.3284912,-0.32702637,0.28198242,25 
0.8392334,2.7313232,-1.2969971,0.46313477,0.47851562,0.71069336,-0.3284912,-0.32702637,0.28198242,26 
1.4953613,2.243042,-0.93078613,0.4638672,0.47998047,0.70947266,-0.3284912,-0.32702637,0.28198242,27 
1.739502,1.953125,-1.0223389,0.46264648,0.48095703,0.7089844,-0.3314209,-0.32336426,0.2775879,28 
1.9683838,2.1972656,-0.88500977,0.46069336,0.48120117,0.7097168,-0.3314209,-0.32336426,0.2775879,29 
2.1820068,2.1820068,-0.88500977,0.46044922,0.4807129,0.7116699,-0.33032227,-0.3251953,0.2841797,30 
1.2207031,1.9989014,-1.2054443,0.45996094,0.4802246,0.71435547,-0.33032227,-0.3251953,0.2841797,31 
0.90026855,2.4414062,-0.6713867,0.45947266,0.4802246,0.7167969,-0.33032227,-0.3251953,0.2841797,32 
0.5187988,2.0599365,-0.9918213,0.4584961,0.4802246,0.71850586,-0.3284912,-0.32556152,0.2779541,33 
0.8392334,2.380371,-0.64086914,0.4567871,0.4807129,0.71875,-0.3284912,-0.32556152,0.2779541,34 
1.0375977,2.822876,-1.0070801,0.45581055,0.4819336,0.71850586,-0.32958984,-0.32556152,0.2808838,35 
1.6784668,3.540039,-1.4801025,0.45483398,0.48242188,0.71850586,-0.32958984,-0.32556152,0.2808838,36 
1.9836426,4.547119,-1.6937256,0.45581055,0.48364258,0.71777344,-0.32958984,-0.32556152,0.2808838,37 
2.5177002,5.050659,-1.8157959,0.45751953,0.48413086,0.71850586,-0.32922363,-0.32702637,0.27905273,38 
2.9449463,3.9978027,-1.4648438,0.45922852,0.484375,0.71777344,-0.32922363,-0.32702637,0.27905273,39 
3.036499,4.638672,-1.6174316,0.46069336,0.48339844,0.7175293,-0.33325195,-0.32336426,0.27941895,40 
3.1433105,4.852295,-1.4190674,0.46118164,0.4814453,0.7163086,-0.33325195,-0.32336426,0.27941895,41 
2.9907227,4.562378,-1.2054443,0.46240234,0.47875977,0.71484375,-0.33325195,-0.32336426,0.27941895,42 
2.243042,3.8909912,-1.1749268,0.4638672,0.47558594,0.71313477,-0.32666016,-0.32592773,0.27575684,43 
2.0446777,3.0517578,-1.0528564,0.46484375,0.4724121,0.71191406,-0.32666016,-0.32592773,0.27575684,44 
1.6937256,3.479004,-0.9613037,0.46435547,0.4711914,0.7114258,-0.32885742,-0.32336426,0.28271484,45 
0.9918213,2.9754639,-1.1291504,0.4645996,0.47143555,0.7116699,-0.32885742,-0.32336426,0.28271484,46 
1.1901855,3.0670166,-1.2969971,0.46411133,0.47338867,0.7126465,-0.32885742,-0.32336426,0.28271484,47 
1.0986328,2.8381348,-1.3580322,0.46411133,0.47558594,0.7126465,-0.32592773,-0.32373047,0.28381348,48 
1.4190674,2.89917,-1.1901855,0.4638672,0.4777832,0.7126465,-0.32592773,-0.32373047,0.28381348,49 
1.4648438,3.1433105,-1.2817383,0.4633789,0.47973633,0.71313477,-0.32922363,-0.32666016,0.28381348,50 
1.3885498,2.960205,-1.3122559,0.4633789,0.48095703,0.7138672,-0.32922363,-0.32666016,0.28381348,51 
1.4648438,3.0670166,-1.1444092,0.46289062,0.47998047,0.7141113,-0.32922363,-0.32666016,0.28381348,52 
2.105713,3.3721924,-1.5106201,0.4621582,0.47998047,0.71435547,-0.32556152,-0.3244629,0.28381348,53 
2.3040771,3.7994385,-1.5563965,0.46166992,0.47875977,0.7145996,-0.32556152,-0.3244629,0.28381348,54 
2.2888184,3.90625,-1.9073486,0.46166992,0.47802734,0.71533203,-0.32958984,-0.32409668,0.2808838,55 
2.0141602,4.058838,-1.8310547,0.46240234,0.47607422,0.71533203,-0.32958984,-0.32409668,0.2808838,56 
2.2277832,3.9672852,-1.9226074,0.46240234,0.47509766,0.7150879,-0.32958984,-0.32409668,0.2775879,57 
2.1972656,3.2958984,-1.7089844,0.4633789,0.47485352,0.71533203,-0.32922363,-0.32336426,0.2775879,58 
1.6479492,2.8839111,-1.6479492,0.46362305,0.4753418,0.71606445,-0.32922363,-0.32336426,0.2775879,59 
2.319336,3.2348633,-1.739502,0.4638672,0.47607422,0.7175293,-0.328125,-0.3248291,0.2849121,60 
1.4648438,3.189087,-1.2969971,0.46435547,0.47631836,0.71777344,-0.328125,-0.3248291,0.2849121,61 
0.5645752,2.090454,-1.2817383,0.46484375,0.4753418,0.717041,-0.328125,-0.3248291,0.2849121,62 
1.083374,2.1820068,-0.79345703,0.46411133,0.47436523,0.7150879,-0.3314209,-0.32739258,0.27978516,63 
0.61035156,2.1209717,-0.8087158,0.46289062,0.4741211,0.7128906,-0.3314209,-0.32739258,0.27978516,64 
0.8087158,1.739502,-0.7171631,0.46166992,0.4736328,0.7121582,-0.3317871,-0.3244629,0.28015137,65 
0.90026855,1.6784668,-1.159668,0.4597168,0.47509766,0.71191406,-0.3317871,-0.3244629,0.28015137,66 
1.3427734,3.1738281,-1.5106201,0.45898438,0.47680664,0.7128906,-0.3317871,-0.3244629,0.28015137,67 
1.7852783,3.0822754,-1.2054443,0.45996094,0.47875977,0.7155762,-0.33032227,-0.32629395,0.27941895,68 
1.876831,2.7923584,-1.3885498,0.4621582,0.4790039,0.7175293,-0.33032227,-0.32629395,0.27941895,69 
2.090454,2.1209717,-1.3275146,0.4633789,0.47924805,0.71899414,-0.33398438,-0.32299805,0.2779541,70 
1.3427734,2.4719238,-0.91552734,0.46240234,0.47998047,0.7194824,-0.33398438,-0.32299805,0.2779541,71 
1.1444092,2.5787354,-1.1444092,0.46069336,0.47998047,0.71899414,-0.33398438,-0.3248291,0.2779541,72 
0.8544922,3.036499,-1.2359619,0.45922852,0.4802246,0.7180176,-0.32702637,-0.3248291,0.2779541,73 
1.4648438,3.4484863,-1.4038086,0.45898438,0.47924805,0.7167969,-0.32702637,-0.3248291,0.2779541,74 
2.3040771,3.326416,-1.7089844,0.45922852,0.47802734,0.71606445,-0.32922363,-0.32409668,0.27648926,75 
1.5258789,3.5095215,-1.8920898,0.45996094,0.47705078,0.7163086,-0.32922363,-0.32409668,0.27648926,76 
1.2817383,3.2043457,-1.6326904,0.46044922,0.4741211,0.71777344,-0.32922363,-0.32409668,0.27722168,77 
1.1138916,2.9296875,-1.2054443,0.46118164,0.4729004,0.71875,-0.33032227,-0.32409668,0.27722168,78 
0.39672852,2.7923584,-1.0375977,0.46069336,0.47192383,0.71875,-0.33032227,-0.32409668,0.27722168,79 
-0.35095215,3.2958984,-1.1138916,0.4609375,0.47192383,0.7182617,-0.32922363,-0.32299805,0.27722168,80 
-1.3427734,2.532959,-1.083374,0.46069336,0.47216797,0.7182617,-0.32922363,-0.32299805,0.27722168,81 
-1.8005371,2.746582,-0.88500977,0.46020508,0.47387695,0.717041,-0.32922363,-0.32299805,0.27648926,82 
-1.4953613,2.5024414,-0.64086914,0.46020508,0.47802734,0.7155762,-0.32629395,-0.32263184,0.27648926,83 
-1.0375977,1.9989014,-0.9613037,0.46044922,0.48168945,0.7145996,-0.32629395,-0.32263184,0.27648926,84 
-0.48828125,2.4871826,-1.1749268,0.46044922,0.48461914,0.7133789,-0.3310547,-0.31860352,0.27722168,85 
0.88500977,3.1585693,-1.3427734,0.46069336,0.48608398,0.71240234,-0.3310547,-0.31860352,0.27722168,86 
1.4343262,3.0517578,-1.7852783,0.46118164,0.4855957,0.7121582,-0.3310547,-0.32226562,0.27062988,87 
2.0599365,3.4332275,-1.7852783,0.46313477,0.484375,0.7126465,-0.32885742,-0.32226562,0.27062988,88 
2.166748,2.8686523,-1.2969971,0.4650879,0.48291016,0.7128906,-0.32885742,-0.32226562,0.27062988,89 
1.9836426,2.1972656,-1.159668,0.46655273,0.47998047,0.7141113,-0.3277588,-0.32373047,0.274292,90 
1.4343262,1.2664795,-0.8544922,0.46704102,0.4765625,0.7150879,-0.3277588,-0.32373047,0.274292,91 
1.0375977,1.449585,-0.579834,0.46606445,0.4736328,0.7158203,-0.3277588,-0.32373047,0.274292,92 
0.8544922,1.6937256,-0.79345703,0.4650879,0.47094727,0.7163086,-0.3277588,-0.32666016,0.274292,93 
0.10681152,1.8463135,-0.74768066,0.4633789,0.46948242,0.717041,-0.3277588,-0.32666016,0.274292,94 
-0.579834,2.5024414,-0.64086914,0.46289062,0.46948242,0.71728516,-0.32885742,-0.3251953,0.27905273,95 
-0.289917,2.4414062,-0.8392334,0.4621582,0.47094727,0.7180176,-0.32885742,-0.3251953,0.27905273,96 
-0.39672852,2.166748,-0.9765625,0.46166992,0.4729004,0.71777344,-0.32885742,-0.32336426,0.2746582,97 
-0.64086914,2.89917,-1.0986328,0.4609375,0.47509766,0.71850586,-0.32702637,-0.32336426,0.2746582,98 
-0.45776367,2.2735596,-1.1444092,0.46020508,0.4765625,0.71875,-0.32702637,-0.32336426,0.2746582,99 
0.39672852,2.4719238,-1.2512207,0.45898438,0.47753906,0.7192383,-0.3310547,-0.32226562,0.28015137,100 
0.61035156,2.3498535,-1.4190674,0.45751953,0.47851562,0.7192383,-0.3310547,-0.32226562,0.28015137,101 
0.18310547,2.89917,-1.4801025,0.45581055,0.47802734,0.71875,-0.32958984,-0.32373047,0.27905273,102 
-0.21362305,2.7160645,-1.4648438,0.45532227,0.4777832,0.7182617,-0.32958984,-0.32373047,0.27905273,103 
-0.16784668,3.7384033,-1.6021729,0.4555664,0.47802734,0.71728516,-0.32958984,-0.32373047,0.27905273,104 
-0.93078613,3.479004,-1.4190674,0.4560547,0.47851562,0.7167969,-0.3284912,-0.32336426,0.2779541,105 
-0.61035156,3.7841797,-1.6784668,0.4560547,0.4802246,0.7167969,-0.3284912,-0.32336426,0.2779541,106 
-0.6713867,3.6315918,-1.6174316,0.45629883,0.48168945,0.71777344,-0.3284912,-0.32263184,0.2783203,107 
-0.44250488,3.9215088,-1.7089844,0.45703125,0.48242188,0.71875,-0.32666016,-0.32263184,0.2783203,108 
0.030517578,4.5166016,-1.3580322,0.4572754,0.48364258,0.71899414,-0.32666016,-0.32263184,0.2783203,109 
0.1373291,5.218506,-1.4038086,0.45776367,0.48461914,0.7194824,-0.32995605,-0.32373047,0.2783203,110 
0.18310547,5.126953,-1.1291504,0.45898438,0.484375,0.71899414,-0.32995605,-0.32373047,0.2783203,111 
0.015258789,4.760742,-1.4190674,0.45996094,0.48339844,0.7182617,-0.32702637,-0.32666016,0.2779541,112 
0.8392334,4.8675537,-0.76293945,0.46142578,0.4814453,0.717041,-0.32702637,-0.32666016,0.2779541,113 
0.6866455,4.8828125,-1.1749268,0.46191406,0.4794922,0.71533203,-0.32702637,-0.32666016,0.2779541,114 
0.5187988,4.714966,-0.93078613,0.46118164,0.47753906,0.7138672,-0.32922363,-0.32556152,0.28234863,115 
0.18310547,5.004883,-1.1749268,0.46118164,0.47631836,0.7128906,-0.32922363,-0.32556152,0.28234863,116 
0.18310547,4.7454834,-1.0528564,0.4609375,0.47558594,0.7126465,-0.32995605,-0.32299805,0.27648926,117 
-0.2746582,4.5318604,-1.3427734,0.46118164,0.47583008,0.7126465,-0.32995605,-0.32299805,0.27648926,118 
-0.15258789,4.562378,-1.4953613,0.46240234,0.4765625,0.7116699,-0.32995605,-0.32299805,0.27648926,119 
0.2746582,4.4555664,-1.6479492,0.4633789,0.4777832,0.7114258,-0.32702637,-0.32409668,0.2775879,120 
0.091552734,4.5776367,-1.7089844,0.46362305,0.47875977,0.7116699,-0.32702637,-0.32409668,0.2775879,121 
-0.091552734,3.9978027,-1.449585,0.4645996,0.47998047,0.71240234,-0.32629395,-0.32299805,0.2808838,122 
0.045776367,4.135132,-1.8920898,0.46557617,0.4802246,0.7121582,-0.32629395,-0.32299805,0.2808838,123 
0.10681152,3.8452148,-1.7089844,0.46704102,0.4807129,0.7126465,-0.32629395,-0.32299805,0.2808838,124 
0.33569336,3.3111572,-1.6174316,0.4675293,0.48095703,0.71313477,-0.32739258,-0.3251953,0.28344727,125 
0.030517578,2.8686523,-1.6479492,0.46728516,0.48046875,0.71313477,-0.32739258,-0.3251953,0.28344727,126 
0.5645752,2.5024414,-2.243042,0.4658203,0.47998047,0.71240234,-0.33032227,-0.32006836,0.27575684,127 
0.74768066,3.3721924,-1.7700195,0.46435547,0.47973633,0.7126465,-0.33032227,-0.32006836,0.27575684,128 
0.8392334,3.8757324,-1.6937256,0.46264648,0.4794922,0.71240234,-0.33032227,-0.32006836,0.27575684,129 
0.64086914,3.7384033,-1.4648438,0.4621582,0.47875977,0.71240234,-0.328125,-0.3251953,0.2783203,130 
0.6866455,3.7384033,-1.3580322,0.46264648,0.4777832,0.7121582,-0.328125,-0.3251953,0.2783203,131 
0.44250488,3.616333,-1.3427734,0.46313477,0.4777832,0.7116699,-0.3310547,-0.3248291,0.2750244,132 
0.39672852,3.3569336,-1.2817383,0.46411133,0.47851562,0.7116699,-0.3310547,-0.3248291,0.2750244,133 
0.579834,3.0822754,-1.1291504,0.4638672,0.4794922,0.71191406,-0.3310547,-0.3248291,0.2750244,134 
1.0223389,2.5939941,-1.1749268,0.46362305,0.48120117,0.71240234,-0.32958984,-0.3251953,0.28198242,135 
0.869751,2.6550293,-0.9765625,0.46264648,0.48217773,0.7133789,-0.32958984,-0.3251953,0.28198242,136 
1.4648438,2.5024414,-1.0681152,0.4621582,0.48217773,0.7145996,-0.32958984,-0.3218994,0.27575684,137 
1.2359619,2.8076172,-1.2054443,0.46118164,0.48168945,0.7158203,-0.32958984,-0.3218994,0.27575684,138 
1.1138916,3.3721924,-1.6326904,0.46069336,0.48046875,0.7163086,-0.32958984,-0.3218994,0.27575684,139 
0.8087158,3.1585693,-1.3427734,0.46069336,0.4790039,0.71655273,-0.32995605,-0.32336426,0.28198242,140 
0.61035156,2.7160645,-1.373291,0.46044922,0.47753906,0.7163086,-0.32995605,-0.32336426,0.28198242,141 
-0.4272461,3.1280518,-1.3122559,0.46044922,0.47705078,0.7155762,-0.32739258,-0.32409668,0.27905273,142 
0.1373291,3.8146973,-1.7089844,0.45996094,0.47729492,0.71484375,-0.32739258,-0.32409668,0.27905273,143 
-0.2746582,3.9520264,-1.5716553,0.46069336,0.47753906,0.7141113,-0.32739258,-0.32409668,0.27905273,144 
-0.8392334,3.5247803,-1.3885498,0.4621582,0.47802734,0.7133789,-0.3248291,-0.32666016,0.2750244,145 
-0.30517578,3.3874512,-1.373291,0.4621582,0.47924805,0.71362305,-0.3248291,-0.32666016,0.2750244,146 
-0.24414062,3.1433105,-1.2664795,0.46069336,0.48168945,0.7133789,-0.33032227,-0.32629395,0.27685547,147 
0.5187988,3.9520264,-1.2207031,0.4597168,0.48339844,0.7133789,-0.33032227,-0.32629395,0.27685547,148 
1.1291504,4.3182373,-1.5563965,0.45947266,0.48388672,0.71313477,-0.33032227,-0.32629395,0.27685547,149 
0.9460449,4.501343,-1.2664795,0.46118164,0.48291016,0.71240234,-0.32592773,-0.32409668,0.2783203,150 
1.4648438,4.180908,-1.0528564,0.46240234,0.4814453,0.7116699,-0.32592773,-0.32409668,0.2783203,151 
0.90026855,4.0893555,-0.8392334,0.46411133,0.4802246,0.7104492,-0.33032227,-0.32666016,0.27612305,152 
1.0375977,3.9520264,-1.083374,0.4645996,0.4790039,0.7104492,-0.33032227,-0.32666016,0.27612305,153 
1.5563965,3.7841797,-1.1138916,0.4650879,0.47802734,0.71118164,-0.33032227,-0.32666016,0.27612305,154 
1.2207031,3.8452148,-1.5411377,0.46557617,0.47802734,0.71191406,-0.32958984,-0.32592773,0.28125,155 
1.7242432,3.7384033,-1.5411377,0.4645996,0.4794922,0.71362305,-0.32958984,-0.32592773,0.28125,156 
1.2664795,4.470825,-1.8157959,0.4645996,0.48046875,0.71777344,-0.32958984,-0.32336426,0.27868652,157 
1.0375977,3.9978027,-1.6326904,0.46606445,0.48046875,0.720459,-0.32958984,-0.32336426,0.27868652,158 
0.79345703,2.4871826,-1.663208,0.46728516,0.48046875,0.7194824,-0.32958984,-0.32336426,0.27868652,159 
-0.16784668,2.2125244,-0.869751,0.46533203,0.48120117,0.71777344,-0.33251953,-0.3248291,0.2783203,160 
0.36621094,2.6245117,-0.88500977,0.46264648,0.48217773,0.7145996,-0.33251953,-0.3248291,0.2783203,161 
1.6021729,3.326416,-1.2054443,0.4609375,0.48217773,0.71118164,-0.32702637,-0.3248291,0.27685547,162 
1.9378662,3.753662,-1.4190674,0.46118164,0.4831543,0.7089844,-0.32702637,-0.3248291,0.27685547,163 
3.2958984,4.211426,-1.5563965,0.46289062,0.48388672,0.70751953,-0.32702637,-0.3248291,0.27685547,164 
4.058838,3.9978027,-1.7242432,0.46362305,0.48364258,0.7072754,-0.32666016,-0.32299805,0.28344727,165 
4.8980713,4.547119,-1.7547607,0.4650879,0.48120117,0.70947266,-0.32666016,-0.32299805,0.28344727,166 
3.8452148,4.6691895,-1.9378662,0.46728516,0.4777832,0.71240234,-0.32666016,-0.3218994,0.27868652,167 
2.6550293,3.7384033,-1.6784668,0.47021484,0.47509766,0.71533203,-0.32666016,-0.3218994,0.27868652,168 
1.7242432,2.7618408,-1.739502,0.4729004,0.47460938,0.7167969,-0.32666016,-0.3218994,0.27868652,169 
0.8239746,1.7852783,-1.0681152,0.4716797,0.47631836,0.7175293,-0.32556152,-0.32299805,0.27978516,170 
0.091552734,1.6784668,-1.8157959,0.46801758,0.4790039,0.71850586,-0.32556152,-0.32299805,0.27978516,171 
0.12207031,1.6326904,-1.3427734,0.46411133,0.4819336,0.71777344,-0.32702637,-0.32409668,0.27868652,172 
0.64086914,2.6245117,-1.9073486,0.46240234,0.48388672,0.7150879,-0.32702637,-0.32409668,0.27868652,173 
1.3580322,2.5787354,-1.6326904,0.4621582,0.48461914,0.7121582,-0.32702637,-0.32409668,0.27868652,174 
2.2735596,2.5024414,-1.2359619,0.4609375,0.48486328,0.70996094,-0.32958984,-0.32409668,0.27648926,175 
3.0822754,1.8463135,-1.5563965,0.45922852,0.484375,0.70825195,-0.32958984,-0.32409668,0.27648926,176 
4.5928955,2.319336,-1.739502,0.4580078,0.48364258,0.7080078,-0.32739258,-0.32006836,0.27722168,177 
4.562378,3.2348633,-2.105713,0.45874023,0.48242188,0.7084961,-0.32739258,-0.32006836,0.27722168,178 
4.91333,2.89917,-1.8615723,0.46118164,0.4794922,0.7089844,-0.32739258,-0.32006836,0.27722168,179 
4.8217773,2.5482178,-1.9378662,0.46313477,0.47631836,0.7121582,-0.3310547,-0.3244629,0.2808838,180 
3.9215088,2.2735596,-1.4953613,0.46362305,0.47509766,0.7150879,-0.3310547,-0.3244629,0.2808838,181 
3.4942627,2.39563,-1.4801025,0.4638672,0.47436523,0.717041,-0.32995605,-0.3218994,0.2779541,182 
3.0059814,2.0599365,-1.373291,0.4650879,0.47436523,0.71777344,-0.32995605,-0.3218994,0.2779541,183 
3.2043457,1.6174316,-0.6713867,0.46533203,0.47607422,0.71728516,-0.32995605,-0.3218994,0.2779541,184 
2.8839111,2.5177002,-1.1444092,0.46533203,0.47875977,0.7167969,-0.32958984,-0.32299805,0.27539062,185 
3.616333,2.4261475,-1.4648438,0.46533203,0.47924805,0.71606445,-0.32958984,-0.32299805,0.27539062,186 
3.6315918,2.456665,-1.3885498,0.46655273,0.4790039,0.71533203,-0.32995605,-0.3244629,0.27722168,187 
3.5247803,2.4414062,-1.0070801,0.46777344,0.47802734,0.71435547,-0.32995605,-0.3244629,0.27722168,188 
3.7384033,1.7852783,-0.93078613,0.46875,0.4753418,0.71313477,-0.32995605,-0.3244629,0.27722168,189 
3.829956,0.4272461,-1.0375977,0.46801758,0.4716797,0.7116699,-0.32958984,-0.32226562,0.27246094,190 
2.7923584,0.045776367,-0.74768066,0.46557617,0.46777344,0.7109375,-0.32958984,-0.32226562,0.27246094,191 
2.2583008,0.47302246,-1.1138916,0.46191406,0.46411133,0.7114258,-0.3277588,-0.321167,0.27575684,192 
1.7089844,0.9613037,-1.4648438,0.45874023,0.46142578,0.7121582,-0.3277588,-0.321167,0.27575684,193 
1.3427734,1.1444092,-1.5411377,0.45654297,0.45996094,0.7138672,-0.3277588,-0.321167,0.27575684,194 
0.6561279,1.739502,-1.5563965,0.45532227,0.46069336,0.717041,-0.33032227,-0.32006836,0.27246094,195 
3.8604736,1.7700195,-1.876831,0.4543457,0.46240234,0.7199707,-0.33032227,-0.32006836,0.27246094,196 
-0.32043457,1.8157959,-1.7242432,0.45385742,0.4650879,0.72216797,-0.3244629,-0.31896973,0.27319336,197 
-0.579834,2.6550293,-1.5563965,0.45336914,0.46875,0.72436523,-0.3244629,-0.31896973,0.27319336,198 
-1.0986328,3.5705566,-1.9378662,0.45410156,0.4724121,0.7253418,-0.3244629,-0.31896973,0.27319336,199 
-0.64086914,4.562378,-1.5258789,0.4543457,0.47558594,0.7258301,-0.32922363,-0.31860352,0.27392578,200 
-0.8392334,5.844116,-1.6937256,0.45507812,0.47851562,0.7260742,-0.32922363,-0.31860352,0.27392578,201 
-0.1373291,6.439209,-1.7089844,0.45703125,0.4802246,0.7260742,-0.32739258,-0.32006836,0.2750244,202 
0.2746582,5.8135986,-1.4038086,0.45947266,0.48095703,0.7246094,-0.32739258,-0.32006836,0.2750244,203 
0.5950928,5.004883,-1.3275146,0.46044922,0.48046875,0.72216797,-0.32739258,-0.32006836,0.2750244,204 
0.8087158,5.874634,-1.4801025,0.4584961,0.47998047,0.7199707,-0.32885742,-0.321167,0.27172852,205 
1.373291,7.1258545,-1.5563965,0.4580078,0.47875977,0.7182617,-0.32885742,-0.321167,0.27172852,206 
0.4272461,7.659912,-1.6937256,0.45922852,0.47607422,0.7175293,-0.3284912,-0.321167,0.27648926,207 
0.061035156,7.232666,-1.5258789,0.4609375,0.47387695,0.7175293,-0.3284912,-0.321167,0.27648926,208 
0.045776367,6.942749,-1.1138916,0.46289062,0.47338867,0.71655273,-0.3284912,-0.321167,0.27648926,209 
-0.19836426,6.134033,-1.4343262,0.46313477,0.47485352,0.7163086,-0.32958984,-0.3248291,0.27612305,210 
0.12207031,5.706787,-1.373291,0.46313477,0.4765625,0.717041,-0.32958984,-0.3248291,0.27612305,211 
0.30517578,6.0424805,-2.029419,0.46313477,0.47802734,0.71850586,-0.32739258,-0.32299805,0.2750244,212 
0.7019043,6.790161,-2.8076172,0.4645996,0.4794922,0.71850586,-0.32739258,-0.32299805,0.2750244,213 
1.3275146,7.385254,-2.532959,0.46704102,0.48095703,0.71728516,-0.32739258,-0.32299805,0.2750244,214 
2.1362305,6.4849854,-2.5024414,0.47192383,0.48095703,0.7158203,-0.32958984,-0.3218994,0.27575684,215 
2.8533936,6.0272217,-2.2888184,0.47631836,0.4794922,0.7133789,-0.32958984,-0.3218994,0.27575684,216 
2.7008057,4.135132,-1.876831,0.4794922,0.47729492,0.7116699,-0.32629395,-0.3251953,0.27905273,217 
2.5634766,3.6315918,-1.0070801,0.48217773,0.47460938,0.7097168,-0.32629395,-0.3251953,0.27905273,218 
1.6326904,2.166748,-0.6866455,0.48339844,0.47045898,0.70751953,-0.32629395,-0.3251953,0.27905273,219 
1.2512207,0.64086914,-0.18310547,0.48364258,0.46704102,0.70532227,-0.33215332,-0.32336426,0.27539062,220 
0.4119873,-0.77819824,0.32043457,0.48242188,0.4658203,0.7036133,-0.33215332,-0.32336426,0.27539062,221 
-0.45776367,-1.3580322,0.7171631,0.47973633,0.46533203,0.703125,-0.3284912,-0.32080078,0.2750244,222 
-0.36621094,-1.9989014,0.5645752,0.4765625,0.46655273,0.703125,-0.3284912,-0.32080078,0.2750244,223 
0.061035156,-2.0141602,0.5340576,0.47314453,0.46899414,0.70288086,-0.3284912,-0.32080078,0.2750244,224 
0.5187988,-2.1209717,0.44250488,0.47021484,0.47265625,0.7038574,-0.3310547,-0.32373047,0.28015137,225 
1.2969971,-1.9989014,0.4272461,0.46777344,0.47558594,0.70654297,-0.3310547,-0.32373047,0.28015137,226 
2.5177002,-0.9613037,-0.091552734,0.46484375,0.47753906,0.7097168,-0.3284912,-0.32299805,0.2775879,227 
2.4414062,0.15258789,-0.74768066,0.46240234,0.4777832,0.7145996,-0.3284912,-0.32299805,0.2775879,228 
2.5634766,0.5340576,-1.0070801,0.46069336,0.47705078,0.71972656,-0.3284912,-0.32299805,0.2775879,229 
2.2125244,0.2746582,-1.2207031,0.45898438,0.47485352,0.7229004,-0.32922363,-0.3215332,0.274292,230 
0.579834,0.5187988,-1.663208,0.4560547,0.47314453,0.7248535,-0.32922363,-0.3215332,0.274292,231 
0.24414062,1.1291504,-1.6784668,0.45288086,0.47314453,0.7270508,-0.33068848,-0.32263184,0.27172852,232 
-0.15258789,1.739502,-1.8615723,0.4494629,0.47509766,0.7277832,-0.33068848,-0.32263184,0.27172852,233 
0.10681152,2.4108887,-2.166748,0.44726562,0.47802734,0.7272949,-0.33068848,-0.32263184,0.27172852,234 
0.5187988,3.8604736,-2.4108887,0.4453125,0.4819336,0.7270508,-0.32885742,-0.3218994,0.2750244,235 
1.2512207,4.180908,-2.532959,0.44506836,0.484375,0.7258301,-0.32885742,-0.3218994,0.2750244,236 
2.1209717,4.257202,-2.6245117,0.44702148,0.48657227,0.7246094,-0.33032227,-0.32299805,0.27685547,237 
2.380371,4.6539307,-2.4719238,0.44921875,0.48657227,0.7241211,-0.33032227,-0.32299805,0.27685547,238 
2.3651123,4.8675537,-2.105713,0.44995117,0.484375,0.72436523,-0.33032227,-0.32299805,0.27685547,239 
2.243042,4.425049,-1.953125,0.4519043,0.48217773,0.72387695,-0.32958984,-0.3218994,0.2680664,240 
2.1514893,4.5928955,-1.6326904,0.45288086,0.47973633,0.7233887,-0.32958984,-0.3218994,0.2680664,241 
1.6174316,5.3253174,-1.1291504,0.45385742,0.47827148,0.72143555,-0.32885742,-0.32226562,0.2713623,242 
1.3122559,5.859375,-1.4190674,0.45532227,0.47729492,0.7199707,-0.32885742,-0.32226562,0.2713623,243 
1.7852783,6.4086914,-1.1138916,0.45776367,0.47680664,0.7182617,-0.32885742,-0.32226562,0.2713623,244 
2.1514893,5.9661865,-1.0375977,0.46142578,0.47705078,0.7155762,-0.32666016,-0.3244629,0.27648926,245 
3.0059814,5.996704,-1.2359619,0.46533203,0.47729492,0.7133789,-0.32666016,-0.3244629,0.27648926,246 
3.7994385,5.706787,-1.2054443,0.46801758,0.47680664,0.7104492,-0.3310547,-0.32556152,0.2775879,247 
4.501343,5.7525635,-1.449585,0.46948242,0.47387695,0.7089844,-0.3310547,-0.32556152,0.2775879,248 
4.2266846,4.8980713,-1.4648438,0.47045898,0.47021484,0.70825195,-0.3310547,-0.32556152,0.2775879,249 
3.540039,4.333496,-1.3122559,0.4716797,0.46655273,0.70825195,-0.32702637,-0.32336426,0.27539062,250 
2.5787354,3.8452148,-1.7242432,0.47387695,0.4621582,0.7097168,-0.32702637,-0.32336426,0.27539062,251 
1.6326904,3.4332275,-1.2512207,0.4753418,0.45825195,0.7109375,-0.32592773,-0.3248291,0.27722168,252 
0.50354004,2.609253,-1.4190674,0.47607422,0.45532227,0.71240234,-0.32592773,-0.3248291,0.27722168,253 
-0.6561279,1.7089844,-2.090454,0.47583008,0.45483398,0.7128906,-0.32592773,-0.3248291,0.27722168,254 
-1.6021729,1.6479492,-1.5869141,0.47583008,0.4555664,0.71362305,-0.32702637,-0.32336426,0.27648926,255 
-1.5106201,1.5106201,-1.8615723,0.47583008,0.45825195,0.7141113,-0.32702637,-0.32336426,0.27648926,0 
-1.6326904,1.2359619,-1.7242432,0.47607422,0.46118164,0.7141113,-0.3248291,-0.32006836,0.27685547,1 
-1.3885498,0.8239746,-1.4038086,0.47607422,0.4645996,0.7133789,-0.3248291,-0.32006836,0.27685547,2 
-1.5716553,0.4272461,-0.5645752,0.4753418,0.46679688,0.7133789,-0.3248291,-0.32006836,0.27685547,3 
-0.9613037,0.076293945,-0.39672852,0.4736328,0.47021484,0.7128906,-0.32666016,-0.32666016,0.27209473,4 
-0.869751,-0.2593994,0.1373291,0.47192383,0.47314453,0.71313477,-0.32666016,-0.32666016,0.27209473,5 
-0.7324219,0.076293945,0.38146973,0.47094727,0.47558594,0.71362305,-0.3317871,-0.32226562,0.27648926,6 
0.12207031,0.30517578,0.33569336,0.4699707,0.47705078,0.71435547,-0.3317871,-0.32226562,0.27648926,7 
0.79345703,0.12207031,0.62561035,0.46728516,0.4777832,0.717041,-0.3317871,-0.32226562,0.27648926,8 
1.0375977,0.50354004,0.5187988,0.4645996,0.47680664,0.7199707,-0.32629395,-0.32263184,0.26879883,9 
1.0986328,0.2593994,0.48828125,0.4621582,0.47583008,0.7236328,-0.32629395,-0.32263184,0.26879883,10 
0.38146973,0.5950928,0.79345703,0.45898438,0.47460938,0.7265625,-0.32409668,-0.32629395,0.27612305,11 
0.091552734,1.0986328,0.16784668,0.45629883,0.4753418,0.72875977,-0.32409668,-0.32629395,0.27612305,12 
0.19836426,1.739502,0.62561035,0.45385742,0.4753418,0.7297363,-0.32409668,-0.32629395,0.27612305,13 
-0.289917,2.4108887,0.5340576,0.45117188,0.47607422,0.7312012,-0.3248291,-0.32263184,0.2680664,14 
-0.61035156,2.2888184,0.2593994,0.44995117,0.4765625,0.73095703,-0.3248291,-0.32263184,0.2680664,15 
-0.9613037,3.768921,0.39672852,0.44921875,0.47705078,0.73046875,-0.32373047,-0.3218994,0.27539062,16 
-1.0070801,3.540039,-0.030517578,0.44848633,0.47924805,0.72680664,-0.32373047,-0.3218994,0.27539062,17 
0.0,4.7454834,0.15258789,0.44873047,0.4819336,0.7233887,-0.32373047,-0.3218994,0.27539062,18 
0.6866455,5.7525635,-0.47302246,0.44873047,0.48217773,0.71875,-0.32409668,-0.3248291,0.274292,19 
1.0528564,6.439209,-1.1138916,0.44995117,0.47998047,0.7145996,-0.32409668,-0.3248291,0.274292,20 
0.9918213,6.5612793,-1.2359619,0.453125,0.47705078,0.71069336,-0.3277588,-0.3251953,0.2750244,21 
1.4953613,6.072998,-1.5716553,0.4572754,0.47558594,0.7080078,-0.3277588,-0.3251953,0.2750244,22 
1.4801025,5.4626465,-1.7852783,0.45996094,0.47558594,0.7077637,-0.3277588,-0.3251953,0.27392578,23 
2.1209717,4.6081543,-2.2735596,0.46166992,0.47729492,0.7092285,-0.328125,-0.32263184,0.27392578,24 
3.1585693,4.928589,-2.3345947,0.46264648,0.47802734,0.71313477,-0.328125,-0.32263184,0.27392578,25 
2.7770996,4.562378,-3.479004,0.46264648,0.47753906,0.7182617,-0.32739258,-0.32043457,0.2783203,26 
2.1514893,4.180908,-3.189087,0.4638672,0.47680664,0.7219238,-0.32739258,-0.32043457,0.2783203,27 
1.2512207,3.829956,-3.1433105,0.46533203,0.47607422,0.7246094,-0.32739258,-0.32043457,0.2783203,28 
0.33569336,3.1585693,-3.0059814,0.4650879,0.4765625,0.7246094,-0.3244629,-0.32409668,0.2709961,29 
-0.50354004,2.8686523,-2.7923584,0.4638672,0.47851562,0.7207031,-0.3244629,-0.32409668,0.2709961,30 
-0.22888184,4.0283203,-3.1433105,0.46118164,0.48120117,0.7158203,-0.32592773,-0.3248291,0.27978516,31 
0.35095215,4.6844482,-3.0212402,0.45922852,0.48388672,0.7109375,-0.32592773,-0.3248291,0.27978516,32 
1.5869141,5.722046,-3.2958984,0.45898438,0.48583984,0.70581055,-0.32592773,-0.3248291,0.27978516,33 
3.540039,5.9051514,-2.9144287,0.46020508,0.48706055,0.7023926,-0.3277588,-0.3218994,0.27355957,34 
4.1046143,5.584717,-3.2653809,0.46142578,0.4873047,0.7011719,-0.3277588,-0.3218994,0.27355957,35 
5.569458,5.2490234,-2.89917,0.46411133,0.48535156,0.7023926,-0.3314209,-0.3244629,0.2783203,36 
5.279541,4.6844482,-2.960205,0.46533203,0.48095703,0.70654297,-0.3314209,-0.3244629,0.2783203,37 
4.8675537,3.6621094,-2.6855469,0.46679688,0.47705078,0.71069336,-0.3314209,-0.3244629,0.27246094,38 
3.9672852,2.9296875,-2.1362305,0.46875,0.4741211,0.71655273,-0.3310547,-0.32226562,0.27246094,39 
2.7008057,1.8920898,-1.9378662,0.46923828,0.4716797,0.720459,-0.3310547,-0.32226562,0.27246094,40 
2.166748,1.1444092,-1.0986328,0.46777344,0.47094727,0.72265625,-0.3277588,-0.32080078,0.2746582,41 
1.6174316,1.5258789,-1.1291504,0.46533203,0.46948242,0.7229004,-0.3277588,-0.32080078,0.2746582,42 
1.4953613,1.9836426,-0.6866455,0.46411133,0.46826172,0.72216797,-0.3277588,-0.32080078,0.2746582,43 
1.3427734,2.3498535,-0.91552734,0.46362305,0.46655273,0.7199707,-0.3251953,-0.3215332,0.27722168,44 
1.2359619,2.3651123,-0.88500977,0.46435547,0.46435547,0.71777344,-0.3251953,-0.3215332,0.27722168,45 
1.7547607,2.029419,-0.4119873,0.46606445,0.4621582,0.71655273,-0.3314209,-0.3248291,0.2775879,46 
1.9073486,1.5869141,-0.77819824,0.46606445,0.46142578,0.717041,-0.3314209,-0.3248291,0.2775879,47 
1.8005371,1.6479492,-0.8239746,0.46606445,0.4609375,0.7180176,-0.3314209,-0.3248291,0.2775879,48 
0.45776367,1.5411377,-0.9918213,0.4663086,0.4609375,0.7207031,-0.328125,-0.3218994,0.27685547,49 
1.0681152,1.739502,-0.6713867,0.4663086,0.46191406,0.7229004,-0.328125,-0.3218994,0.27685547,50 
0.6561279,1.8157959,-0.6561279,0.46606445,0.46362305,0.72509766,-0.3284912,-0.32080078,0.27868652,51 
0.8544922,2.090454,-0.91552734,0.46557617,0.46557617,0.7258301,-0.3284912,-0.32080078,0.27868652,52 
1.449585,2.8839111,-0.6713867,0.46435547,0.46679688,0.72558594,-0.3284912,-0.32080078,0.2783203,53 
1.1901855,3.250122,-1.1749268,0.46435547,0.46801758,0.7248535,-0.32958984,-0.32080078,0.2783203,54 
1.6326904,4.196167,-1.0375977,0.46411133,0.46875,0.7233887,-0.32958984,-0.32080078,0.2783203,55 
2.1820068,4.058838,-0.9918213,0.46435547,0.46899414,0.72143555,-0.328125,-0.3251953,0.2783203,56 
1.953125,4.3029785,-1.663208,0.46484375,0.46899414,0.71972656,-0.328125,-0.3251953,0.2783203,57 
1.8005371,4.119873,-1.739502,0.46557617,0.46972656,0.71850586,-0.328125,-0.3251953,0.27355957,58 
1.953125,4.486084,-1.4801025,0.46655273,0.4699707,0.717041,-0.32592773,-0.3215332,0.27355957,59 
1.7852783,3.6315918,-1.8615723,0.46679688,0.46899414,0.7158203,-0.32592773,-0.3215332,0.27355957,60 
1.5106201,2.9754639,-1.0223389,0.4675293,0.46777344,0.71533203,-0.328125,-0.3218994,0.27941895,61 
1.3275146,2.5024414,-1.0681152,0.46777344,0.46704102,0.7145996,-0.328125,-0.3218994,0.27941895,62 
0.9918213,2.090454,-0.6866455,0.46655273,0.46679688,0.7145996,-0.328125,-0.3218994,0.27685547,63 
0.33569336,2.2125244,-0.62561035,0.4650879,0.4663086,0.71533203,-0.3284912,-0.32336426,0.27685547,64 
0.061035156,1.5258789,-0.33569336,0.4633789,0.46655273,0.71606445,-0.3284912,-0.32336426,0.27685547,65 
-0.2746582,1.8463135,-0.64086914,0.4621582,0.46777344,0.717041,-0.3317871,-0.32373047,0.27648926,66 
-0.47302246,1.7547607,-0.44250488,0.46044922,0.46875,0.7175293,-0.3317871,-0.32373047,0.27648926,67 
-0.7019043,1.6937256,-0.6561279,0.45874023,0.47021484,0.71850586,-0.3317871,-0.31933594,0.274292,68 
-1.0070801,1.6326904,-0.76293945,0.45703125,0.4729004,0.71899414,-0.32702637,-0.31933594,0.274292,69 
-1.2207031,2.1820068,-0.6713867,0.4567871,0.47485352,0.71850586,-0.32702637,-0.31933594,0.274292,70 
-1.1138916,1.9989014,-0.74768066,0.45581055,0.47631836,0.7180176,-0.3277588,-0.32263184,0.27648926,71 
-1.0681152,2.1972656,-0.90026855,0.45507812,0.47827148,0.71777344,-0.3277588,-0.32263184,0.27648926,72 
-0.7324219,2.319336,-0.88500977,0.45507812,0.47998047,0.71850586,-0.3277588,-0.32409668,0.26989746,73 
-0.4119873,2.89917,-0.9918213,0.45507812,0.48168945,0.7182617,-0.32556152,-0.32409668,0.26989746,74 
0.061035156,3.2958984,-0.88500977,0.45532227,0.48388672,0.71875,-0.32556152,-0.32409668,0.26989746,75 
0.38146973,3.4332275,-1.1901855,0.45703125,0.48486328,0.71875,-0.33032227,-0.32373047,0.27685547,76 
0.061035156,3.0517578,-1.4343262,0.45898438,0.48339844,0.71899414,-0.33032227,-0.32373047,0.27685547,77 
0.19836426,3.0822754,-1.0070801,0.46166992,0.4814453,0.71899414,-0.33032227,-0.32006836,0.27319336,78 
0.045776367,3.1280518,-0.6713867,0.46264648,0.47973633,0.71850586,-0.32629395,-0.32006836,0.27319336,79 
-0.16784668,2.319336,-0.76293945,0.46289062,0.47851562,0.71777344,-0.32629395,-0.32006836,0.27319336,80 
0.24414062,2.9754639,-0.88500977,0.46264648,0.47729492,0.717041,-0.3277588,-0.32373047,0.2775879,81 
0.88500977,3.5705566,-0.9765625,0.4621582,0.47509766,0.7167969,-0.3277588,-0.32373047,0.2775879,82 
1.1901855,3.8757324,-1.4343262,0.46289062,0.47387695,0.71777344,-0.3244629,-0.32043457,0.2775879,83 
1.3122559,3.90625,-1.1901855,0.46533203,0.47143555,0.7180176,-0.3244629,-0.32043457,0.2775879,84 
1.449585,3.3416748,-1.2817383,0.46801758,0.46899414,0.7180176,-0.3244629,-0.32043457,0.2775879,85 
0.90026855,1.9683838,-0.91552734,0.46948242,0.46704102,0.71850586,-0.328125,-0.3218994,0.27905273,86 
0.24414062,1.739502,-0.36621094,0.46850586,0.46606445,0.71850586,-0.328125,-0.3218994,0.27905273,87 
0.289917,1.5869141,-0.5187988,0.46728516,0.46533203,0.7182617,-0.3244629,-0.32336426,0.27319336,88 
-0.5645752,1.6937256,-0.5645752,0.46484375,0.4658203,0.7180176,-0.3244629,-0.32336426,0.27319336,89 
-0.8544922,1.7089844,-0.61035156,0.46313477,0.46679688,0.71777344,-0.3244629,-0.32336426,0.27319336,90 
-0.7324219,1.9683838,-0.90026855,0.46142578,0.46850586,0.7180176,-0.32922363,-0.3218994,0.2746582,91 
-0.91552734,2.5482178,-1.1749268,0.45996094,0.47045898,0.71850586,-0.32922363,-0.3218994,0.2746582,92 
-1.1749268,2.6245117,-1.5258789,0.45996094,0.4724121,0.7182617,-0.3251953,-0.321167,0.2775879,93 
-0.5645752,2.609253,-1.5411377,0.45947266,0.4741211,0.7180176,-0.3251953,-0.321167,0.2775879,94 
-0.47302246,2.6855469,-1.4648438,0.4597168,0.47583008,0.71777344,-0.3251953,-0.321167,0.2775879,95 
0.50354004,3.3874512,-1.7852783,0.4597168,0.4777832,0.71777344,-0.3251953,-0.31970215,0.27978516,96 
0.64086914,3.1738281,-1.6479492,0.46020508,0.47875977,0.7192383,-0.3251953,-0.31970215,0.27978516,97 
0.93078613,3.036499,-1.6021729,0.46044922,0.47851562,0.71972656,-0.32592773,-0.32409668,0.27868652,98 
1.2969971,3.3416748,-1.449585,0.46118164,0.4777832,0.7194824,-0.32592773,-0.32409668,0.27868652,99 
1.0223389,3.463745,-1.4953613,0.4621582,0.47607422,0.7192383,-0.32592773,-0.32409668,0.27868652,100 
1.0681152,2.9296875,-1.0681152,0.4633789,0.47387695,0.71875,-0.32885742,-0.3218994,0.27209473,101 
0.2746582,2.380371,-1.0528564,0.46313477,0.4716797,0.71850586,-0.32885742,-0.3218994,0.27209473,102 
0.0,2.746582,-1.1291504,0.46191406,0.4699707,0.7192383,-0.32409668,-0.32373047,0.27539062,103 
-0.5493164,3.0517578,-1.1749268,0.46044922,0.46875,0.71875,-0.32409668,-0.32373047,0.27539062,104 
-0.38146973,3.6010742,-1.5563965,0.45947266,0.46948242,0.71899414,-0.32409668,-0.32373047,0.27539062,105 
-0.33569336,3.5705566,-1.6784668,0.45898438,0.47070312,0.71972656,-0.32739258,-0.32629395,0.27648926,106 
-0.091552734,4.3029785,-1.7242432,0.45751953,0.47216797,0.7194824,-0.32739258,-0.32629395,0.27648926,107 
0.4272461,4.638672,-2.1209717,0.4567871,0.47436523,0.7194824,-0.32592773,-0.3244629,0.27539062,108 
0.30517578,4.562378,-1.9989014,0.45751953,0.47607422,0.71875,-0.32592773,-0.3244629,0.27539062,109 
0.44250488,5.1116943,-1.8920898,0.4584961,0.47729492,0.7180176,-0.32592773,-0.3244629,0.27539062,110 
0.93078613,5.065918,-2.166748,0.45874023,0.47802734,0.71777344,-0.32702637,-0.3218994,0.27648926,111 
0.91552734,5.4779053,-2.4261475,0.45947266,0.47802734,0.7163086,-0.32702637,-0.3218994,0.27648926,112 
0.6713867,5.3253174,-2.1514893,0.46020508,0.4777832,0.71606445,-0.3248291,-0.3248291,0.27612305,113 
0.62561035,5.5389404,-2.4871826,0.4609375,0.47753906,0.71606445,-0.3248291,-0.3248291,0.27612305,114 
1.1138916,5.584717,-2.2888184,0.46313477,0.4765625,0.7167969,-0.3248291,-0.3248291,0.27612305,115 
1.6479492,5.493164,-2.090454,0.46557617,0.47680664,0.717041,-0.32629395,-0.32409668,0.27868652,116 
1.373291,5.065918,-1.6174316,0.46826172,0.47460938,0.7175293,-0.32629395,-0.32409668,0.27868652,117 
0.579834,3.4942627,-0.869751,0.47021484,0.4716797,0.717041,-0.3277588,-0.32409668,0.27612305,118 
0.19836426,2.9907227,-0.5645752,0.46972656,0.47045898,0.71606445,-0.3277588,-0.32409668,0.27612305,119 
0.076293945,3.0822754,-0.47302246,0.46777344,0.47070312,0.71533203,-0.3277588,-0.32409668,0.27612305,120 
-0.30517578,3.3569336,-0.7324219,0.46655273,0.47070312,0.7150879,-0.3277588,-0.3244629,0.2808838,121 
-0.15258789,3.3111572,-0.39672852,0.4650879,0.47143555,0.7150879,-0.3277588,-0.3244629,0.2808838,122 
-0.2746582,3.3416748,-1.0986328,0.46484375,0.47387695,0.7155762,-0.32556152,-0.32373047,0.27978516,123 
-0.2593994,3.40271,-0.9918213,0.46435547,0.47680664,0.7150879,-0.32556152,-0.32373047,0.27978516,124 
0.32043457,3.2653809,-1.1291504,0.46362305,0.47851562,0.7150879,-0.32556152,-0.32373047,0.27978516,125 
0.9460449,3.6773682,-1.739502,0.46313477,0.48095703,0.71435547,-0.3277588,-0.32299805,0.2808838,126 
1.8005371,3.9215088,-1.8157959,0.46240234,0.48291016,0.71313477,-0.3277588,-0.32299805,0.2808838,127 
2.2583008,3.4332275,-1.876831,0.4633789,0.48291016,0.7128906,-0.32592773,-0.32373047,0.2779541,128 
3.1738281,2.960205,-2.090454,0.4633789,0.48168945,0.71435547,-0.32592773,-0.32373047,0.2779541,129 
3.6468506,2.090454,-1.9226074,0.46313477,0.4794922,0.7155762,-0.32592773,-0.32373047,0.2779541,130 
3.692627,1.7242432,-1.7852783,0.46142578,0.4765625,0.7163086,-0.32885742,-0.32409668,0.27648926,131 
3.1585693,1.663208,-1.8920898,0.46069336,0.4741211,0.71728516,-0.32885742,-0.32409668,0.27648926,132 
2.2125244,1.8920898,-1.876831,0.45922852,0.47070312,0.71777344,-0.32666016,-0.3218994,0.2775879,133 
1.6326904,1.8920898,-1.3427734,0.45825195,0.46850586,0.71850586,-0.32666016,-0.3218994,0.2775879,134 
0.79345703,2.7008057,-1.3122559,0.45751953,0.46801758,0.7194824,-0.32666016,-0.3218994,0.2775879,135 
0.47302246,3.4332275,-1.5106201,0.45874023,0.46923828,0.7199707,-0.32922363,-0.3215332,0.27685547,136 
0.9918213,4.0283203,-1.7242432,0.46069336,0.47143555,0.71972656,-0.32922363,-0.3215332,0.27685547,137 
1.6784668,4.8980713,-1.6479492,0.4638672,0.47509766,0.71899414,-0.32666016,-0.3215332,0.27868652,138 
2.609253,5.3253174,-1.7547607,0.46606445,0.47851562,0.7182617,-0.32666016,-0.3215332,0.27868652,139 
2.5024414,4.547119,-1.2817383,0.46850586,0.47802734,0.71728516,-0.32666016,-0.3215332,0.27868652,140 
2.5024414,3.7994385,-1.4190674,0.46923828,0.4765625,0.71850586,-0.32885742,-0.3248291,0.27539062,141 
2.5634766,3.9215088,-1.1291504,0.46899414,0.47583008,0.7180176,-0.32885742,-0.3248291,0.27539062,142 
2.7160645,3.6773682,-0.93078613,0.46850586,0.47583008,0.717041,-0.32702637,-0.31933594,0.2783203,143 
2.9296875,4.0130615,-0.869751,0.4675293,0.47460938,0.7167969,-0.32702637,-0.31933594,0.2783203,144 
3.463745,3.3416748,-1.4190674,0.4675293,0.47216797,0.71606445,-0.32702637,-0.31933594,0.2783203,145 
3.189087,3.2348633,-1.0375977,0.46777344,0.46972656,0.7150879,-0.32629395,-0.32299805,0.2775879,146 
3.3416748,2.5177002,-0.93078613,0.46899414,0.46728516,0.7128906,-0.32629395,-0.32299805,0.2775879,147 
3.2958984,1.4648438,-0.9918213,0.4699707,0.46411133,0.7109375,-0.32336426,-0.3218994,0.2816162,148 
3.2196045,0.91552734,-0.74768066,0.46875,0.46118164,0.7097168,-0.32336426,-0.3218994,0.2816162,149 
2.8381348,0.4272461,-0.8239746,0.4663086,0.45776367,0.7121582,-0.32336426,-0.3218994,0.2816162,150 
1.7700195,0.35095215,-1.3427734,0.46362305,0.45458984,0.71655273,-0.3277588,-0.3248291,0.2746582,151 
0.35095215,1.1444092,-1.1749268,0.46069336,0.4543457,0.7207031,-0.3277588,-0.3248291,0.2746582,152 
-1.0375977,1.4953613,-1.1291504,0.45874023,0.4572754,0.7246094,-0.3248291,-0.32556152,0.28125,153 
-1.1901855,1.9378662,-1.2817383,0.45825195,0.46240234,0.7277832,-0.3248291,-0.32556152,0.28125,154 
-2.0141602,2.6245117,-1.4801025,0.45825195,0.46875,0.72998047,-0.3248291,-0.32556152,0.28125,155 
-2.1362305,3.1433105,-1.8310547,0.45751953,0.47583008,0.7294922,-0.3277588,-0.32226562,0.27685547,156 
-1.4343262,4.6081543,-1.5258789,0.4572754,0.48217773,0.72802734,-0.3277588,-0.32226562,0.27685547,157 
-1.1444092,4.6539307,-1.7852783,0.45776367,0.48657227,0.7246094,-0.3284912,-0.32226562,0.28564453,158 
0.33569336,4.40979,-2.090454,0.45825195,0.4880371,0.72094727,-0.3284912,-0.32226562,0.28564453,159 
1.5411377,4.3792725,-1.5411377,0.45776367,0.4885254,0.71655273,-0.3284912,-0.32226562,0.28564453,160 
2.9907227,4.699707,-2.0751953,0.45751953,0.48706055,0.71362305,-0.32592773,-0.32263184,0.27978516,161 
3.540039,4.8217773,-2.3345947,0.45776367,0.48339844,0.7121582,-0.32592773,-0.32263184,0.27978516,162 
4.272461,4.5166016,-1.9226074,0.45996094,0.4777832,0.71191406,-0.32739258,-0.32299805,0.28125,163 
3.768921,3.5247803,-1.6479492,0.4638672,0.47314453,0.71313477,-0.32739258,-0.32299805,0.28125,164 
3.0975342,2.0751953,-1.0375977,0.4658203,0.46875,0.71435547,-0.32739258,-0.32299805,0.28125,165 
1.9073486,1.5563965,-0.36621094,0.46606445,0.46606445,0.7163086,-0.32885742,-0.3215332,0.28344727,166 
1.4038086,1.4038086,-0.061035156,0.46484375,0.46411133,0.7175293,-0.32885742,-0.3215332,0.28344727,167 
0.7171631,1.5716553,-0.21362305,0.46289062,0.46289062,0.7182617,-0.32556152,-0.32226562,0.28125,168 
0.24414062,2.380371,-0.061035156,0.46118164,0.46362305,0.71850586,-0.32556152,-0.32226562,0.28125,169 
-0.061035156,2.9296875,-0.39672852,0.46069336,0.46606445,0.71850586,-0.32556152,-0.32226562,0.28125,170 
-0.12207031,3.3111572,-0.91552734,0.46069336,0.4675293,0.71875,-0.32739258,-0.32409668,0.27868652,171 
-0.19836426,3.6010742,-1.1444092,0.4609375,0.46850586,0.7194824,-0.32739258,-0.32409668,0.27868652,172 
-0.47302246,4.119873,-1.6174316,0.46166992,0.46850586,0.72021484,-0.32739258,-0.3215332,0.2775879,173 
-0.6713867,4.3182373,-1.663208,0.46264648,0.46875,0.72143555,-0.32739258,-0.3215332,0.2775879,174 
-0.7171631,0.030517578,-1.6937256,0.46313477,0.46948242,0.7211914,-0.32739258,-0.3215332,0.2775879,175 
-0.9460449,3.616333,-1.8157959,0.46313477,0.47021484,0.72094727,-0.328125,-0.31933594,0.2775879,176 
-0.74768066,4.0130615,-1.5869141,0.46191406,0.4716797,0.72021484,-0.328125,-0.31933594,0.2775879,177 
-3.6468506,4.5776367,-2.0599365,0.45996094,0.4729004,0.7192383,-0.3244629,-0.32006836,0.27575684,178 
0.39672852,5.126953,-2.456665,0.4597168,0.47387695,0.71899414,-0.3244629,-0.32006836,0.27575684,179 
0.869751,5.7678223,-2.5634766,0.46142578,0.47583008,0.7180176,-0.3244629,-0.32006836,0.27575684,180 
1.5411377,5.722046,-2.5177002,0.4638672,0.4765625,0.7167969,-0.32666016,-0.32043457,0.28198242,181 
1.9378662,5.004883,-2.0141602,0.46801758,0.47705078,0.71606445,-0.32666016,-0.32043457,0.28198242,182 
2.2277832,3.6468506,-0.93078613,0.47021484,0.47583008,0.7155762,-0.33032227,-0.31933594,0.28125,183 
2.5634766,2.670288,-0.6561279,0.47094727,0.47436523,0.7155762,-0.33032227,-0.31933594,0.28125,184 
2.2125244,2.3345947,-0.32043457,0.47070312,0.4729004,0.71655273,-0.33032227,-0.31933594,0.28125,185 
2.1972656,2.1514893,-0.33569336,0.46923828,0.47070312,0.7175293,-0.32666016,-0.3215332,0.27685547,186 
1.9073486,2.243042,-0.15258789,0.46875,0.46875,0.7180176,-0.32666016,-0.3215332,0.27685547,187 
1.3122559,1.8005371,-0.16784668,0.46801758,0.46704102,0.7182617,-0.3284912,-0.32043457,0.28344727,188 
0.9613037,1.9683838,0.030517578,0.46679688,0.4663086,0.7182617,-0.3284912,-0.32043457,0.28344727,189 
0.5493164,2.7313232,-0.19836426,0.4663086,0.46679688,0.71777344,-0.3284912,-0.32043457,0.28344727,190 
0.5645752,2.2735596,-0.47302246,0.46557617,0.46801758,0.7175293,-0.3284912,-0.32336426,0.2808838,191 
0.77819824,2.8839111,-0.90026855,0.4658203,0.46899414,0.7180176,-0.3284912,-0.32336426,0.2808838,192 
1.159668,2.4871826,-1.6174316,0.46655273,0.47021484,0.71875,-0.3248291,-0.32336426,0.28381348,193 
1.4038086,2.1972656,-1.0986328,0.4658203,0.47094727,0.7192383,-0.3248291,-0.32336426,0.28381348,194 
1.5258789,2.1209717,-1.6479492,0.46484375,0.4711914,0.7192383,-0.3248291,-0.32336426,0.28381348,195 
1.876831,2.166748,-1.5258789,0.4633789,0.47070312,0.71875,-0.32995605,-0.3218994,0.28051758,196 
1.4648438,2.5024414,-1.7547607,0.46166992,0.47021484,0.71850586,-0.32995605,-0.3218994,0.28051758,197 
0.7171631,2.5177002,-1.9683838,0.4609375,0.46899414,0.71972656,-0.32885742,-0.3218994,0.28125,198 
0.19836426,2.0446777,-1.7700195,0.4609375,0.46875,0.7199707,-0.32885742,-0.3218994,0.28125,199 
0.289917,2.166748,-1.4648438,0.4609375,0.47021484,0.71972656,-0.32885742,-0.3218994,0.28125,200 
-0.1373291,1.6784668,-1.1444092,0.45996094,0.4724121,0.71972656,-0.32666016,-0.32299805,0.28125,201 
0.0,1.9683838,-0.7019043,0.4597168,0.4736328,0.7192383,-0.32666016,-0.32299805,0.28125,202 
-0.48828125,1.739502,-0.7324219,0.45874023,0.4741211,0.7182617,-0.32739258,-0.31896973,0.28894043,203 
-0.48828125,2.090454,-0.48828125,0.45776367,0.4753418,0.7180176,-0.32739258,-0.31896973,0.28894043,204 
-0.5645752,2.4871826,-0.39672852,0.45654297,0.47705078,0.71777344,-0.32739258,-0.31896973,0.28894043,205 
3.8146973,2.7313232,-0.4272461,0.45581055,0.47827148,0.71850586,-0.32922363,-0.32299805,0.28198242,206 
0.4119873,3.2958984,-0.47302246,0.4560547,0.47827148,0.7192383,-0.32922363,-0.32299805,0.28198242,207 
1.373291,3.90625,-0.76293945,0.4567871,0.47875977,0.7199707,-0.3277588,-0.321167,0.2808838,208 
1.9073486,4.79126,-1.0528564,0.4584961,0.47753906,0.7207031,-0.3277588,-0.321167,0.2808838,209 
1.739502,3.9978027,-1.2969971,0.46118164,0.47558594,0.72094727,-0.3277588,-0.321167,0.2808838,210 
1.7242432,3.90625,-1.2512207,0.46289062,0.4741211,0.7211914,-0.32592773,-0.32080078,0.28015137,211 
2.6245117,3.6010742,-1.083374,0.46484375,0.4724121,0.72143555,-0.32592773,-0.32080078,0.28015137,212 
1.8005371,2.8381348,-1.0528564,0.46435547,0.47045898,0.72143555,-0.32666016,-0.321167,0.2808838,213 
1.3275146,2.960205,-1.0070801,0.46362305,0.46850586,0.720459,-0.32666016,-0.321167,0.2808838,214 
0.5950928,2.746582,-1.1901855,0.46240234,0.4675293,0.7192383,-0.32666016,-0.321167,0.2808838,215 
0.62561035,2.5939941,-0.9918213,0.4621582,0.46679688,0.7180176,-0.32592773,-0.32299805,0.27392578,216 
0.12207031,1.9683838,-1.2054443,0.4621582,0.46606445,0.7158203,-0.32592773,-0.32299805,0.27392578,217 
-0.061035156,2.3498535,-0.9460449,0.46264648,0.4663086,0.71484375,-0.32592773,-0.3218994,0.28198242,218 
0.21362305,2.6245117,-1.1444092,0.46362305,0.46679688,0.71484375,-0.32592773,-0.3218994,0.28198242,219 
0.12207031,1.8615723,-1.3885498,0.4633789,0.46801758,0.71606445,-0.32592773,-0.3218994,0.28198242,220 
0.10681152,2.822876,-1.5563965,0.4638672,0.46972656,0.71728516,-0.32702637,-0.32006836,0.27685547,221 
0.15258789,2.4261475,-1.6021729,0.46411133,0.47216797,0.71875,-0.32702637,-0.32006836,0.27685547,222 
0.4119873,2.166748,-1.6174316,0.4638672,0.47436523,0.72021484,-0.3284912,-0.32409668,0.28710938,223 
0.4272461,2.4414062,-1.5106201,0.4638672,0.47583008,0.720459,-0.3284912,-0.32409668,0.28710938,224 
1.2969971,3.036499,-1.4648438,0.46264648,0.47631836,0.720459,-0.3284912,-0.32409668,0.28710938,225 
0.64086914,3.5247803,-1.1901855,0.46289062,0.47485352,0.7194824,-0.32666016,-0.31933594,0.27978516,227 
1.2512207,2.9754639,-1.3580322,0.46362305,0.47338867,0.71777344,-0.32995605,-0.32336426,0.28308105,228 
1.6479492,2.2735596,-1.4801025,0.4638672,0.4711914,0.71777344,-0.32995605,-0.32336426,0.28308105,229 
1.4190674,2.5177002,-1.4038086,0.46264648,0.46923828,0.7175293,-0.32995605,-0.32336426,0.28308105,230 
0.38146973,2.89917,-1.2817383,0.46069336,0.46850586,0.71777344,-0.32592773,-0.31933594,0.28234863,231 
0.7171631,2.5024414,-1.1749268,0.45947266,0.4675293,0.7182617,-0.32592773,-0.31933594,0.28234863,232 
0.4119873,2.2583008,-1.5106201,0.46020508,0.46777344,0.71899414,-0.32629395,-0.321167,0.28344727,233 
0.289917,2.9754639,-1.663208,0.46020508,0.46948242,0.7194824,-0.32629395,-0.321167,0.28344727,234 
0.2746582,2.7618408,-1.159668,0.4609375,0.4711914,0.72021484,-0.32629395,-0.321167,0.28344727,235 
0.38146973,2.380371,-1.1749268,0.46142578,0.4736328,0.7207031,-0.328125,-0.32299805,0.2779541,236 
1.0070801,2.2583008,-1.4801025,0.46118164,0.47436523,0.72143555,-0.328125,-0.32299805,0.2779541,237 
0.61035156,2.4108887,-1.1291504,0.46118164,0.47436523,0.7216797,-0.32629395,-0.3215332,0.2808838,238 
0.61035156,2.670288,-0.6713867,0.46069336,0.4741211,0.7207031,-0.32629395,-0.3215332,0.2808838,239 
0.5493164,2.1820068,-0.88500977,0.46069336,0.4736328,0.71972656,-0.32629395,-0.3215332,0.2808838,240 
0.15258789,2.4414062,-0.869751,0.45996094,0.47338867,0.7192383,-0.3251953,-0.32409668,0.27722168,241 
0.16784668,2.39563,-0.9460449,0.45996094,0.4736328,0.71875,-0.3251953,-0.32409668,0.27722168,242 
-0.2746582,2.9296875,-1.0986328,0.45947266,0.47314453,0.7180176,-0.328125,-0.31970215,0.28015137,243 
-0.12207031,2.5024414,-0.8239746,0.4597168,0.47338867,0.7180176,-0.328125,-0.31970215,0.28015137,244 
0.33569336,3.2653809,-0.62561035,0.46044922,0.47265625,0.71777344,-0.328125,-0.31970215,0.27648926,245 
0.015258789,2.8839111,-0.8087158,0.4609375,0.47265625,0.7180176,-0.32592773,-0.32299805,0.27648926,246 
-0.1373291,2.5482178,-1.0375977,0.46118164,0.47265625,0.71850586,-0.32592773,-0.32299805,0.27648926,247 
-0.4272461,3.1433105,-1.0223389,0.4609375,0.47216797,0.7194824,-0.3277588,-0.321167,0.2808838,248 
-0.30517578,3.036499,-0.90026855,0.46142578,0.47070312,0.72021484,-0.3277588,-0.321167,0.2808838,249 
-0.2746582,3.3111572,-0.93078613,0.46191406,0.4699707,0.7199707,-0.3277588,-0.321167,0.2808838,250 
-0.35095215,2.7313232,-1.159668,0.4621582,0.46972656,0.7194824,-0.3251953,-0.32336426,0.28015137,251 
-0.90026855,2.4871826,-1.0681152,0.46289062,0.46899414,0.71899414,-0.3251953,-0.32336426,0.28015137,252 
-1.4343262,2.2888184,-1.2817383,0.4633789,0.46850586,0.7192383,-0.3284912,-0.32080078,0.28051758,253 
-0.76293945,2.9296875,-1.2817383,0.46362305,0.46972656,0.7192383,-0.3284912,-0.32080078,0.28051758,254 
